aX,aY,aZ,gX,gY,gZ
0.156,0.721,-0.823,25.696,-38.757,39.001
0.202,0.693,-0.717,29.968,-42.969,41.748
0.205,0.697,-0.664,29.114,-42.725,45.471
0.171,0.714,-0.675,24.963,-40.405,49.561
0.187,0.724,-0.716,24.597,-38.818,51.819
0.191,0.678,-0.777,27.588,-38.818,52.673
0.183,0.600,-0.860,35.156,-41.382,56.091
0.192,0.578,-0.899,48.157,-48.157,63.354
0.154,0.673,-0.890,62.500,-57.861,72.449
0.061,0.889,-0.864,74.036,-68.298,77.820
0.068,1.021,-0.730,72.998,-81.848,74.646
-0.224,1.200,-0.723,56.824,-94.727,64.697
-0.176,1.349,-0.785,29.785,-110.413,51.636
-0.298,1.438,-0.787,13.672,-131.409,28.442
-0.424,1.465,-0.767,2.686,-151.184,3.174
-0.433,1.505,-0.667,0.854,-168.152,-20.996
-0.417,1.516,-0.526,7.019,-176.819,-48.767
-0.406,1.491,-0.458,20.081,-169.556,-78.064
-0.458,1.462,-0.306,30.151,-158.813,-106.262
-0.464,1.493,-0.185,46.692,-136.902,-132.263
-0.490,1.470,-0.066,69.397,-102.783,-161.011
-0.366,1.145,-0.057,102.356,-59.692,-197.815
-0.283,1.203,-0.015,130.005,-11.536,-230.835
-0.316,1.246,0.235,145.264,40.466,-261.780
-0.365,1.074,0.481,152.832,98.694,-297.058
-0.392,0.921,0.690,136.597,159.912,-331.299
-0.427,0.757,0.942,98.450,223.022,-364.136
-0.514,0.459,1.033,33.264,282.288,-395.325
-0.624,0.159,0.882,-39.551,333.374,-419.128
-0.761,-0.184,0.529,-107.910,374.512,-431.519
-0.804,-0.423,0.235,-146.484,400.696,-432.068
-0.848,-0.590,0.083,-159.424,416.687,-425.781
-0.927,-0.860,-0.071,-181.274,429.260,-415.466
-0.883,-1.046,-0.397,-192.444,441.406,-400.635
-0.566,-1.062,-0.911,-189.941,445.190,-382.385
-0.113,-1.286,-1.436,-165.161,431.152,-377.686
0.359,-1.566,-2.031,-119.141,392.639,-367.798
0.863,-1.791,-2.393,-68.787,331.299,-321.777
1.208,-2.211,-2.409,-34.912,248.718,-236.023
1.471,-2.541,-1.976,-14.404,164.734,-128.967
1.625,-2.475,-1.399,13.000,119.690,-12.207
1.323,-2.313,-1.263,28.687,126.038,101.990
0.973,-2.017,-1.472,24.109,144.897,209.900
0.552,-1.794,-1.843,4.761,143.860,302.124
0.259,-1.560,-1.976,-2.014,119.934,380.249
0.058,-1.499,-2.170,1.770,85.144,448.364
-0.204,-1.617,-2.246,16.907,50.232,513.306
-0.542,-1.604,-2.042,50.598,17.395,584.412
-1.107,-1.369,-1.803,77.454,-8.484,660.645
-1.751,-0.725,-1.969,78.247,-34.546,727.234
-2.230,-0.023,-2.285,48.950,-80.200,761.108
-2.624,0.723,-2.601,6.897,-141.541,762.085
-2.833,1.344,-2.796,-20.203,-226.379,727.966
-2.775,1.805,-2.846,-20.508,-319.763,656.311
-2.696,2.095,-2.682,15.625,-406.799,557.312
-2.595,2.175,-2.354,58.838,-477.539,443.481
-2.549,2.120,-1.906,107.300,-520.935,316.711
-2.268,2.049,-1.362,155.273,-535.706,175.781
-1.933,1.822,-0.792,201.599,-514.648,21.973
-1.558,1.552,-0.279,238.098,-455.444,-128.662
-1.156,1.244,0.119,273.499,-358.337,-258.179
-0.891,0.875,0.229,309.326,-234.802,-359.253
-0.511,0.636,0.516,342.102,-111.206,-432.495
-0.477,0.321,0.733,355.103,7.324,-483.826
-0.424,0.103,1.118,333.374,124.084,-520.996
-0.279,-0.157,1.525,280.151,229.248,-549.805
-0.277,-0.309,1.558,191.589,319.275,-562.988
-0.459,-0.749,1.072,96.619,385.742,-570.190
-0.635,-1.189,0.569,15.320,423.767,-546.021
-0.961,-1.326,0.158,-37.048,442.261,-501.465
-1.091,-1.547,-0.200,-71.472,456.726,-469.482
-0.708,-1.684,-0.669,-116.516,463.196,-453.796
-0.253,-1.785,-1.292,-149.048,447.510,-449.585
0.292,-2.070,-1.778,-133.850,397.888,-436.279
0.726,-2.295,-1.980,-89.233,323.425,-378.357
0.883,-2.270,-1.931,-57.007,249.695,-268.127
0.984,-2.211,-2.010,-47.363,196.716,-153.748
1.132,-2.381,-2.178,-42.969,156.128,-67.200
1.179,-2.415,-2.149,-23.926,119.324,14.282
1.016,-2.188,-1.966,1.892,94.360,111.755
0.780,-1.870,-1.871,21.179,86.609,206.848
0.560,-1.508,-1.859,27.527,85.815,285.217
0.273,-1.459,-2.022,8.911,75.134,354.187
0.123,-1.323,-2.215,-15.137,46.814,428.833
-0.111,-1.289,-2.430,-36.133,2.625,506.531
-0.453,-1.348,-2.514,-42.786,-52.063,585.205
-0.997,-1.242,-2.387,-31.555,-109.558,665.649
-1.682,-0.853,-2.099,-4.211,-157.349,736.938
-2.252,-0.188,-2.100,18.433,-190.796,784.363
-2.583,0.634,-2.298,26.855,-224.792,795.837
-2.663,1.251,-2.411,34.363,-275.696,760.071
-2.689,1.642,-2.378,50.415,-342.529,680.176
-2.593,2.002,-2.175,88.623,-414.124,569.275
-2.393,2.098,-1.722,139.648,-476.440,439.148
-2.157,2.127,-1.130,196.594,-510.376,295.837
-1.834,2.119,-0.454,242.126,-499.878,140.808
-1.452,1.897,0.071,270.508,-435.669,-19.775
-1.083,1.481,0.396,284.302,-328.857,-168.335
-0.769,1.003,0.551,302.490,-200.806,-286.560
-0.576,0.586,0.605,328.064,-70.679,-373.047
-0.464,0.288,0.622,356.934,48.584,-436.218
-0.432,-0.017,0.433,375.000,149.841,-483.215
-0.302,-0.313,0.433,375.610,212.036,-510.925
-0.318,-0.591,0.451,364.746,264.160,-524.353
-0.292,-0.871,0.551,316.772,305.725,-523.621
-0.253,-1.125,0.488,229.492,336.914,-525.452
-0.213,-1.356,0.315,113.403,358.765,-525.818
-0.233,-1.434,0.101,24.353,369.141,-525.452
-0.270,-1.538,0.107,-20.691,359.863,-510.498
-0.361,-1.614,0.084,-46.326,342.773,-481.079
-0.615,-1.631,-0.047,-72.205,338.257,-444.519
-0.429,-1.708,-0.422,-109.863,349.731,-407.715
0.234,-2.113,-0.954,-160.950,351.624,-365.295
0.816,-2.379,-1.059,-207.886,314.819,-277.771
1.031,-2.515,-0.906,-227.417,267.639,-156.982
0.863,-2.589,-0.832,-220.215,254.456,-47.913
0.858,-2.545,-1.006,-206.055,276.489,20.752
0.616,-2.420,-1.412,-203.003,296.570,59.875
0.687,-2.365,-1.528,-194.275,293.579,95.032
0.461,-2.249,-1.674,-205.505,276.428,151.978
0.288,-2.006,-1.740,-218.689,254.700,213.989
0.195,-1.859,-1.876,-221.985,236.328,256.897
0.097,-1.754,-2.029,-223.572,219.360,293.518
0.066,-1.718,-2.365,-227.722,199.341,332.092
-0.041,-1.676,-2.747,-225.098,167.786,378.296
-0.166,-1.606,-3.073,-200.073,123.718,436.218
-0.266,-1.476,-3.296,-161.499,63.904,500.427
-0.443,-1.348,-3.282,-108.215,-8.057,558.899
-0.663,-1.202,-3.030,-41.748,-80.017,603.455
-0.891,-1.084,-2.565,29.480,-138.977,632.019
-1.158,-0.854,-2.028,98.267,-173.645,646.057
-1.330,-0.462,-1.536,150.635,-182.983,643.127
-1.339,-0.082,-1.194,181.335,-171.448,614.075
-1.253,0.217,-1.024,194.214,-150.085,557.739
-1.102,0.470,-0.964,197.083,-129.578,481.934
-0.918,0.669,-0.911,202.942,-113.708,396.057
-0.752,0.829,-0.810,213.989,-102.417,307.434
-0.601,0.960,-0.663,229.980,-93.384,220.764
-0.453,1.034,-0.473,248.535,-82.153,136.414
-0.292,1.011,-0.274,262.939,-66.467,54.932
-0.154,0.901,-0.097,275.391,-44.434,-22.400
-0.026,0.756,0.022,280.823,-17.700,-93.323
0.086,0.574,0.076,279.236,11.230,-153.870
0.172,0.394,0.086,278.137,41.138,-203.613
0.230,0.248,0.069,280.823,70.679,-243.164
0.260,0.105,0.025,279.419,98.877,-275.940
0.287,-0.122,0.002,277.161,125.122,-304.443
0.350,-0.400,0.019,263.184,146.667,-327.820
0.498,-0.661,-0.000,229.004,160.645,-342.224

0.523,0.129,-1.145,-1.587,-24.841,51.636
0.533,0.124,-1.138,9.583,-36.255,64.392
0.502,0.296,-1.026,23.682,-51.392,79.102
0.415,0.370,-0.909,26.733,-58.838,86.487
0.331,0.444,-0.940,25.085,-58.960,87.952
0.248,0.569,-1.045,22.095,-61.951,85.266
0.168,0.739,-1.151,28.198,-70.496,77.087
0.105,0.878,-1.196,43.213,-81.909,60.120
0.073,0.935,-1.181,55.603,-95.703,35.706
0.237,0.970,-1.284,61.401,-111.328,10.376
-0.009,0.861,-0.937,71.899,-127.747,-10.498
-0.016,1.116,-0.776,72.327,-136.292,-22.827
0.019,1.205,-0.711,60.425,-136.047,-40.405
-0.020,1.072,-0.720,55.847,-128.235,-72.754
0.024,0.923,-0.719,63.416,-119.263,-104.858
0.083,0.842,-0.675,75.439,-110.718,-131.348
0.128,0.783,-0.584,88.379,-98.511,-153.076
0.109,0.755,-0.501,100.342,-81.604,-173.096
0.135,0.632,-0.458,106.445,-64.331,-194.336
0.147,0.539,-0.394,113.708,-44.922,-216.675
0.142,0.467,-0.263,121.338,-22.888,-239.624
0.120,0.416,-0.096,120.667,1.099,-264.343
0.101,0.368,0.068,113.281,31.189,-293.152
0.131,0.292,0.274,101.440,67.871,-324.219
0.144,0.149,0.471,81.909,110.474,-353.760
0.097,-0.030,0.585,57.434,158.630,-377.075
-0.003,-0.188,0.531,27.344,209.412,-390.259
-0.141,-0.354,0.340,-7.385,255.676,-391.541
-0.253,-0.508,0.135,-41.199,293.030,-382.141
-0.315,-0.703,-0.013,-72.327,317.749,-367.004
-0.330,-0.935,-0.139,-101.135,331.177,-350.647
-0.343,-1.154,-0.387,-122.131,336.182,-332.458
-0.128,-1.417,-0.617,-136.047,332.336,-314.636
0.291,-1.549,-0.816,-143.127,316.406,-300.964
0.530,-1.754,-0.929,-136.047,290.894,-283.997
0.723,-1.964,-1.031,-99.487,263.367,-244.934
0.748,-1.922,-1.072,-72.693,240.845,-168.762
0.705,-1.879,-1.147,-85.022,221.497,-90.149
0.738,-1.941,-1.174,-94.543,198.547,-34.912
0.742,-1.948,-1.019,-81.909,175.781,3.845
0.669,-1.884,-0.777,-67.688,164.490,43.579
0.495,-1.753,-0.667,-71.472,172.546,91.980
0.271,-1.604,-0.695,-92.834,192.017,139.526
0.095,-1.505,-0.905,-138.000,207.031,180.725
0.007,-1.517,-1.217,-197.998,209.412,217.407
-0.034,-1.554,-1.558,-238.464,200.012,253.906
-0.021,-1.633,-1.927,-256.470,181.152,293.274
-0.009,-1.687,-2.273,-258.850,152.161,337.463
0.013,-1.788,-2.628,-242.310,115.417,386.719
-0.060,-1.797,-2.949,-205.322,71.289,442.993
-0.203,-1.739,-3.099,-152.649,19.165,501.404
-0.419,-1.603,-3.060,-82.947,-33.813,555.420
-0.699,-1.389,-2.776,-1.160,-81.482,599.915
-0.966,-1.114,-2.281,82.031,-117.676,629.456
-1.179,-0.806,-1.765,154.236,-136.658,641.174
-1.277,-0.341,-1.361,206.482,-135.681,630.249
-1.329,0.245,-1.234,225.647,-119.202,588.074
-1.395,0.770,-1.303,210.449,-99.915,511.353
-1.387,1.153,-1.371,193.420,-90.881,405.762
-1.277,1.425,-1.304,196.655,-94.788,276.733
-1.108,1.498,-1.072,224.854,-105.042,138.794
-0.856,1.362,-0.747,262.451,-109.314,9.949
-0.602,1.153,-0.438,293.030,-97.534,-94.604
-0.384,0.923,-0.167,308.105,-66.528,-169.922
-0.206,0.685,-0.005,310.303,-22.583,-218.506
-0.075,0.483,0.021,307.617,23.193,-248.840
-0.000,0.286,-0.022,302.734,62.439,-271.790
0.005,0.170,0.008,301.331,91.858,-295.593
-0.059,0.031,0.290,298.279,116.089,-323.608
-0.129,-0.040,0.679,278.015,147.583,-356.506
-0.239,-0.182,0.917,221.497,196.838,-393.555
-0.451,-0.391,0.785,139.282,256.104,-427.856
-0.650,-0.644,0.398,47.302,309.692,-450.745
-0.703,-0.974,0.012,-38.147,339.172,-462.524
-0.486,-1.286,-0.446,-120.911,334.045,-466.858
-0.091,-1.658,-0.795,-185.730,294.800,-466.064
0.396,-1.997,-0.960,-206.055,232.422,-455.994
1.011,-2.432,-0.814,-191.101,168.823,-422.424
1.605,-2.799,-0.371,-169.678,140.991,-323.364
1.317,-2.604,-0.544,-163.818,179.443,-145.569
0.907,-2.228,-0.933,-153.564,228.699,-15.137
0.540,-1.917,-1.125,-134.338,247.498,40.161
0.273,-1.651,-1.129,-122.864,241.028,65.369
0.052,-1.479,-1.089,-133.850,223.572,91.736
-0.001,-1.400,-1.105,-161.682,204.468,123.047
0.048,-1.424,-1.217,-193.909,189.819,154.114
0.163,-1.490,-1.461,-231.445,179.382,183.960
0.224,-1.516,-1.737,-255.432,166.077,219.360
0.289,-1.551,-2.098,-268.005,145.691,263.367
0.312,-1.564,-2.446,-271.057,113.770,312.439
0.218,-1.525,-2.694,-255.371,68.481,362.915
0.073,-1.441,-2.856,-222.534,17.151,416.077
-0.089,-1.323,-2.943,-180.420,-36.255,468.811
-0.306,-1.163,-2.880,-132.324,-91.248,514.404
-0.527,-0.993,-2.767,-76.599,-138.977,549.133
-0.682,-0.784,-2.563,-11.475,-177.612,568.420
-0.817,-0.541,-2.217,65.063,-207.642,567.993
-0.956,-0.215,-1.784,146.240,-227.051,549.438
-1.036,0.172,-1.378,212.036,-233.948,514.038
-1.048,0.520,-1.064,250.549,-227.722,459.717
-0.994,0.800,-0.771,272.217,-211.670,383.850
-0.897,1.066,-0.450,292.419,-183.289,285.950
-0.801,1.178,-0.196,309.204,-141.052,169.495
-0.633,1.106,0.018,318.420,-87.280,45.227
-0.461,0.950,0.193,334.167,-22.583,-72.205
-0.293,0.697,0.251,344.849,47.180,-173.950
-0.185,0.403,0.185,354.065,115.784,-254.395
-0.143,0.097,0.061,360.046,174.561,-312.683
-0.140,-0.113,-0.040,361.694,218.079,-352.112
-0.157,-0.306,-0.004,360.352,244.751,-379.944
-0.205,-0.487,0.230,346.008,259.766,-401.917
-0.304,-0.604,0.407,309.692,276.611,-419.373
-0.357,-0.791,0.294,226.562,298.035,-431.763
-0.284,-1.056,0.124,100.098,314.270,-437.195
-0.054,-1.415,-0.130,-35.950,307.373,-442.810
0.211,-1.799,-0.359,-130.554,269.043,-445.190
0.497,-1.994,-0.448,-160.645,213.318,-427.307
0.866,-2.216,-0.183,-174.316,169.006,-375.610
1.131,-2.496,-0.053,-211.670,171.570,-270.996
0.998,-2.472,-0.275,-244.141,213.135,-133.667
0.687,-2.221,-0.605,-250.854,250.366,-31.006
0.324,-2.009,-0.911,-245.422,267.334,20.874
0.160,-1.834,-1.121,-238.770,264.282,47.119
0.073,-1.724,-1.281,-233.704,249.756,67.810
0.091,-1.711,-1.495,-237.610,231.079,88.501
0.167,-1.734,-1.674,-235.107,207.397,112.305
0.254,-1.773,-1.798,-225.159,180.298,140.259
0.343,-1.797,-1.885,-202.759,155.212,175.598
0.373,-1.756,-1.979,-176.697,135.010,215.637
0.375,-1.682,-2.100,-147.827,117.310,258.484
0.376,-1.668,-2.286,-128.967,94.116,303.284
0.315,-1.696,-2.493,-117.554,58.716,352.966
0.150,-1.610,-2.588,-86.365,12.024,413.696
-0.115,-1.357,-2.476,-43.884,-39.429,478.516
-0.399,-1.084,-2.292,-7.629,-88.562,534.485
-0.713,-0.815,-2.045,22.339,-125.732,572.083
-0.905,-0.456,-1.727,56.519,-151.794,584.351
-0.990,-0.128,-1.487,90.454,-166.016,569.153
-0.987,0.133,-1.361,111.755,-170.044,529.968
-0.946,0.378,-1.259,126.465,-170.837,472.961
-0.908,0.603,-1.134,150.024,-170.593,401.733
-0.835,0.819,-0.957,179.199,-168.091,321.533
-0.732,0.987,-0.744,207.275,-160.461,234.253
-0.629,1.067,-0.505,233.032,-143.921,142.151
-0.527,1.077,-0.257,259.521,-116.699,48.523
-0.403,0.975,-0.055,280.273,-79.102,-43.579
-0.270,0.747,0.055,291.687,-32.654,-129.517
-0.141,0.490,0.099,294.312,16.113,-202.148
-0.077,0.241,0.063,292.786,63.538,-258.545

0.240,-0.078,-0.878,210.388,97.290,244.202
0.131,-0.078,-0.909,203.796,99.854,247.986
0.055,0.121,-0.988,200.439,97.168,252.747
-0.006,0.343,-1.045,194.397,92.834,254.883
-0.105,0.513,-1.184,190.369,83.069,245.789
-0.141,0.598,-1.193,190.063,65.186,226.868
-0.175,0.713,-1.085,190.552,43.213,206.238
-0.200,0.844,-1.172,182.129,25.757,188.782
-0.254,0.972,-1.330,171.265,6.348,169.861
-0.318,1.097,-1.395,173.462,-18.494,147.583
-0.354,1.182,-1.368,183.105,-45.105,122.253
-0.382,1.290,-1.266,190.918,-69.519,96.985
-0.436,1.412,-1.146,192.993,-89.905,72.571
-0.491,1.509,-1.053,188.782,-107.178,47.546
-0.509,1.558,-0.993,180.664,-123.840,20.142
-0.610,1.391,-0.713,179.565,-139.038,-8.911
-0.703,1.484,-0.498,182.495,-148.437,-34.790
-0.599,1.491,-0.399,170.593,-145.874,-58.960
-0.533,1.359,-0.361,164.185,-134.277,-92.651
-0.492,1.195,-0.272,169.678,-117.798,-128.357
-0.377,1.109,-0.198,175.232,-98.206,-161.255
-0.302,1.025,-0.097,178.467,-73.975,-189.453
-0.266,0.976,0.038,181.091,-43.640,-214.172
-0.234,0.908,0.151,181.702,-7.996,-237.305
-0.199,0.765,0.204,181.519,33.386,-261.292
-0.214,0.624,0.318,180.603,79.712,-287.048
-0.124,0.649,0.610,179.199,131.470,-316.223
-0.187,0.565,0.884,158.142,194.702,-349.060
-0.265,0.335,0.930,105.957,266.541,-379.150
-0.343,0.073,0.688,41.077,335.266,-397.949
-0.457,-0.191,0.376,-16.052,386.047,-404.663
-0.547,-0.419,0.262,-61.768,410.583,-400.757
-0.712,-0.647,0.161,-103.394,427.429,-390.869
-0.846,-0.917,0.020,-145.142,440.308,-374.817
-0.790,-1.205,-0.221,-193.237,451.355,-353.943
-0.614,-1.430,-0.567,-255.920,454.285,-329.224
-0.131,-1.837,-0.928,-298.828,441.956,-312.866
0.365,-2.206,-1.477,-307.129,411.377,-299.316
0.731,-2.534,-1.674,-264.648,363.220,-254.517
1.025,-2.649,-1.845,-224.548,314.026,-155.151
1.159,-2.646,-2.039,-220.764,269.104,-39.673
1.250,-2.679,-2.279,-218.750,226.562,52.673
1.073,-2.648,-2.220,-172.729,190.857,127.319
0.674,-2.182,-1.957,-106.201,172.302,206.909
0.209,-1.601,-1.854,-80.872,168.823,284.790
-0.181,-1.255,-1.944,-107.910,160.278,345.276
-0.357,-1.022,-2.145,-143.860,136.108,390.991
-0.352,-0.816,-2.407,-170.166,94.849,430.115
-0.348,-0.839,-2.765,-191.772,40.466,461.304
-0.324,-0.926,-3.104,-196.594,-23.315,493.835
-0.430,-0.937,-3.232,-173.462,-92.651,534.607
-0.692,-0.859,-3.184,-126.709,-154.114,581.726
-1.049,-0.714,-2.989,-72.815,-201.843,627.808
-1.414,-0.451,-2.630,-9.094,-235.291,665.466
-1.700,-0.085,-2.217,53.955,-254.028,685.608
-1.915,0.467,-1.950,102.539,-260.132,680.481
-2.009,1.073,-1.826,127.319,-260.803,641.296
-2.044,1.550,-1.701,143.494,-263.428,560.303
-1.964,1.955,-1.453,165.894,-268.555,438.538
-1.796,2.013,-1.114,197.754,-268.372,284.485
-1.535,1.848,-0.657,240.173,-252.075,120.789
-1.226,1.655,-0.145,283.936,-207.153,-26.917
-1.009,1.367,0.149,312.927,-131.531,-145.325
-0.745,1.071,0.422,332.581,-47.668,-230.774
-0.592,0.817,0.519,352.783,42.053,-294.739
-0.465,0.519,0.525,374.573,122.742,-344.727
-0.351,0.250,0.658,394.531,188.599,-386.047
-0.209,-0.044,1.151,400.208,245.422,-420.776
-0.136,-0.226,1.581,364.868,308.838,-448.792
-0.274,-0.396,1.458,270.996,383.850,-463.196
-0.711,-0.683,0.978,155.273,451.782,-461.121
-0.845,-0.898,0.292,42.847,493.408,-450.317
-0.690,-1.274,-0.331,-76.599,490.967,-436.462
-0.371,-1.736,-0.726,-164.856,442.444,-442.139
0.065,-1.995,-0.914,-202.393,363.831,-444.153
0.555,-2.193,-0.898,-212.219,284.546,-421.814
0.802,-2.377,-0.843,-207.458,234.924,-372.375
0.895,-2.448,-0.712,-192.383,225.403,-289.124
0.812,-2.479,-0.955,-195.679,257.324,-167.603
0.505,-2.152,-1.516,-219.177,292.236,-39.551
0.276,-1.897,-1.840,-225.708,288.879,36.499
0.166,-1.765,-1.996,-218.872,257.263,69.824
0.067,-1.661,-1.886,-202.271,214.661,94.238
0.044,-1.540,-1.778,-194.885,182.434,131.226
-0.007,-1.467,-1.929,-208.923,169.250,173.035
0.000,-1.403,-2.144,-220.154,156.860,208.435
0.047,-1.341,-2.408,-225.647,134.888,242.249
0.114,-1.339,-2.720,-226.868,101.563,281.006
0.197,-1.367,-3.000,-215.820,56.763,326.050
0.243,-1.421,-3.174,-185.669,4.883,375.183
0.177,-1.441,-3.218,-139.343,-49.438,429.382
-0.047,-1.336,-3.073,-75.500,-100.525,488.220
-0.399,-1.144,-2.785,-9.033,-143.372,545.532
-0.788,-0.898,-2.403,44.861,-177.979,593.933
-1.088,-0.592,-1.984,89.722,-203.735,624.146
-1.294,-0.293,-1.624,127.136,-220.276,632.690
-1.416,0.074,-1.385,149.841,-229.675,617.798
-1.505,0.531,-1.250,155.945,-233.887,578.125
-1.507,0.974,-1.141,157.410,-235.474,512.756
-1.430,1.341,-1.062,158.020,-236.572,420.898
-1.346,1.562,-0.970,168.579,-236.938,307.068
-1.209,1.627,-0.754,200.562,-233.826,182.007
-1.022,1.533,-0.382,246.399,-218.994,55.420
-0.852,1.339,0.007,287.598,-181.396,-61.523
-0.671,1.054,0.275,311.890,-118.835,-162.231
-0.480,0.685,0.363,324.463,-40.955,-245.789
-0.327,0.318,0.359,334.839,37.292,-309.875
-0.240,0.073,0.351,352.356,106.934,-355.957
-0.206,-0.160,0.356,364.441,166.077,-387.756
-0.193,-0.410,0.562,367.859,216.614,-412.292
-0.215,-0.620,0.752,351.868,265.747,-433.960
-0.273,-0.945,0.510,278.015,316.223,-451.599
-0.129,-1.213,0.132,153.931,349.915,-461.914
0.135,-1.540,-0.087,38.696,349.487,-470.581
0.322,-1.813,-0.122,-35.706,314.392,-470.825
0.456,-1.970,-0.182,-79.895,261.597,-455.566
0.534,-2.011,-0.128,-100.220,214.294,-415.894
0.625,-2.193,-0.136,-129.333,194.885,-351.501
0.845,-2.415,-0.293,-158.813,207.886,-255.920
0.925,-2.367,-0.641,-180.359,237.000,-140.076
0.836,-2.248,-1.033,-197.083,256.287,-43.274
0.737,-2.155,-1.249,-206.482,255.005,17.822
0.643,-2.069,-1.285,-197.327,240.112,56.824
0.573,-1.976,-1.237,-180.664,227.539,89.966
0.508,-1.862,-1.289,-189.636,224.609,128.418
0.409,-1.836,-1.432,-217.163,223.145,169.312
0.353,-1.748,-1.653,-244.080,216.492,210.266
0.330,-1.634,-1.976,-270.081,202.820,249.146
0.188,-1.512,-2.333,-286.743,178.162,288.147
0.179,-1.417,-2.678,-284.058,139.099,331.543
0.119,-1.417,-2.995,-263.428,88.074,377.197
0.041,-1.351,-3.166,-221.130,27.039,427.612
-0.078,-1.179,-3.149,-165.222,-38.086,481.934
-0.265,-0.990,-2.954,-104.309,-99.792,528.809
-0.480,-0.779,-2.605,-33.203,-150.513,561.523
-0.641,-0.539,-2.188,39.063,-187.256,576.843
-0.735,-0.268,-1.772,99.609,-209.351,573.364
-0.806,-0.007,-1.418,144.714,-218.994,550.293
-0.843,0.255,-1.140,171.692,-219.482,509.949
-0.826,0.600,-0.925,182.739,-213.684,456.360
-0.737,0.711,-0.768,181.519,-202.759,393.982
-0.677,0.921,-0.683,181.458,-189.819,324.402
-0.608,0.958,-0.534,195.251,-174.744,241.577
-0.530,0.994,-0.333,222.046,-155.029,151.367
-0.437,0.953,-0.112,244.812,-128.235,56.396
-0.300,0.837,0.090,263.855,-92.102,-35.950
-0.177,0.679,0.222,272.461,-48.096,-119.751
-0.076,0.483,0.289,276.550,0.000,-188.599
0.026,0.308,0.312,271.790,47.607,-241.394

0.509,0.654,-0.510,-44.250,-119.141,179.565
0.520,0.625,-0.576,-61.035,-115.784,167.969
0.587,0.599,-0.671,-62.988,-117.065,155.945
0.620,0.612,-0.693,-45.044,-121.277,147.400
0.638,0.604,-0.629,-25.757,-120.422,139.160
0.656,0.605,-0.574,-6.287,-114.990,134.583
0.681,0.672,-0.560,5.981,-107.483,133.118
0.617,0.696,-0.565,18.860,-99.731,131.287
0.551,0.716,-0.671,26.489,-91.858,130.798
0.507,0.800,-0.812,35.278,-85.022,129.883
0.450,0.936,-0.914,49.133,-84.045,124.634
0.395,1.013,-1.015,64.026,-89.600,113.281
0.229,1.132,-1.096,72.998,-104.919,97.290
0.243,1.200,-1.171,84.778,-125.244,79.590
0.159,1.072,-1.147,101.929,-147.766,55.969
0.130,0.969,-0.995,126.587,-171.936,35.278
0.102,0.868,-0.803,148.193,-190.186,19.836
0.081,0.715,-0.670,162.170,-198.730,8.667
0.129,0.587,-0.535,168.579,-199.280,4.211
0.147,0.634,-0.428,175.049,-193.909,3.479
0.152,0.660,-0.273,180.786,-183.838,0.244
0.147,0.745,-0.078,198.608,-171.997,-6.348
0.130,0.780,0.099,215.027,-155.273,-17.029
0.115,0.781,0.237,223.206,-134.766,-30.090
0.086,0.780,0.354,223.938,-114.441,-44.250
0.034,0.796,0.494,225.952,-95.032,-59.387
-0.038,0.833,0.653,226.440,-77.942,-76.782
-0.114,0.856,0.802,222.839,-60.181,-99.792
-0.194,0.843,0.938,222.961,-38.513,-129.089
-0.261,0.824,1.094,219.666,-15.442,-165.344
-0.313,0.776,1.249,221.375,12.634,-208.496
-0.356,0.659,1.372,220.215,46.448,-254.761
-0.396,0.499,1.431,216.064,85.205,-301.636
-0.427,0.285,1.450,209.106,124.878,-344.421
-0.422,0.041,1.552,193.970,164.673,-379.333
-0.407,-0.223,1.639,173.889,207.336,-403.931
-0.364,-0.506,1.600,140.320,249.695,-417.175
-0.311,-0.719,1.431,101.624,289.856,-419.739
-0.203,-0.930,1.240,65.369,323.120,-413.574
-0.046,-1.123,1.112,36.621,346.985,-399.963
0.128,-1.298,1.016,8.911,364.380,-379.028
0.311,-1.452,0.845,-25.391,374.695,-351.624
0.539,-1.598,0.618,-65.308,374.634,-318.604
0.845,-1.748,0.485,-93.018,361.938,-279.358
1.044,-1.913,0.459,-107.544,340.088,-233.337
1.145,-2.043,0.369,-132.812,321.899,-174.438
1.156,-2.137,0.228,-160.645,312.317,-103.516
1.114,-2.173,0.059,-185.913,307.434,-31.128
0.945,-2.118,-0.274,-205.261,306.030,30.640
0.909,-2.124,-0.509,-213.196,302.429,78.979
0.960,-2.237,-0.583,-207.397,295.654,113.220
0.935,-2.263,-0.764,-188.171,294.556,141.724
0.844,-2.153,-1.025,-162.903,296.814,173.523
0.765,-1.913,-1.347,-144.897,292.725,208.618
0.718,-1.688,-1.658,-139.526,270.935,239.380
0.717,-1.580,-1.884,-131.104,225.830,262.085
0.730,-1.440,-2.019,-127.075,159.241,281.250
0.690,-1.296,-2.108,-126.526,84.778,298.096
0.642,-1.141,-2.114,-118.530,14.465,314.819
0.543,-0.927,-2.034,-99.121,-41.931,330.994
0.437,-0.726,-1.991,-78.430,-82.458,345.825
0.383,-0.563,-1.991,-62.927,-109.619,357.056
0.339,-0.395,-1.967,-43.396,-130.066,363.098
0.254,-0.155,-1.884,-15.442,-149.292,363.892
0.151,0.090,-1.741,12.329,-168.152,358.521
0.045,0.313,-1.545,41.382,-182.800,346.313
-0.031,0.516,-1.359,66.162,-192.566,327.393
-0.081,0.651,-1.201,86.182,-196.960,300.781
-0.114,0.717,-1.035,106.750,-196.106,268.799
-0.158,0.759,-0.865,129.089,-190.369,235.229
-0.199,0.809,-0.689,150.391,-180.176,201.904
-0.245,0.866,-0.520,168.152,-166.077,170.166
-0.283,0.930,-0.375,185.425,-149.353,140.625
-0.311,0.998,-0.239,205.505,-131.836,112.366
-0.338,1.103,-0.098,228.821,-117.798,83.069
-0.344,1.185,0.075,262.390,-109.497,50.781
-0.343,1.215,0.348,306.458,-107.849,14.526
-0.378,1.362,0.755,353.882,-107.666,-24.597
-0.412,1.512,1.245,383.423,-99.182,-73.364
-0.477,1.434,1.587,378.418,-72.144,-135.071
-0.531,1.158,1.714,354.431,-25.085,-203.735
-0.529,0.797,1.732,322.998,32.104,-272.949
-0.474,0.362,1.676,293.945,92.041,-335.937
-0.406,-0.033,1.701,264.465,146.545,-384.766
-0.264,-0.342,1.970,240.601,199.524,-416.870
-0.234,-0.689,2.158,199.829,260.803,-434.631
-0.208,-1.152,1.920,125.854,330.750,-436.523
0.008,-1.509,1.438,27.283,388.855,-419.495
0.316,-1.735,1.041,-50.049,418.274,-391.174
0.570,-1.902,0.786,-84.839,419.006,-356.567
0.738,-1.973,0.633,-115.723,399.719,-311.035
0.787,-2.134,0.526,-163.391,372.437,-255.249
0.758,-2.349,0.378,-227.295,348.694,-190.918
0.726,-2.418,0.096,-287.598,333.496,-125.488
0.690,-2.520,-0.052,-323.914,323.914,-72.571
0.657,-2.602,-0.198,-332.886,320.679,-32.837
0.653,-2.636,-0.609,-322.937,326.355,1.160
0.788,-2.560,-1.134,-310.486,334.839,36.743
0.975,-2.464,-1.684,-288.696,330.566,69.885
1.091,-2.487,-2.126,-250.183,299.011,96.680
1.117,-2.416,-2.308,-178.833,240.601,127.502
1.047,-2.103,-2.248,-94.421,172.119,173.279
0.867,-1.775,-2.080,-35.400,109.924,227.844
0.697,-1.514,-1.912,-8.789,59.143,279.968
0.598,-1.281,-1.805,-2.258,17.517,322.388
0.508,-1.056,-1.761,1.404,-16.418,350.098
0.395,-0.825,-1.727,4.150,-47.791,364.441
0.276,-0.576,-1.684,8.911,-78.796,369.019
0.190,-0.339,-1.600,15.686,-108.887,365.295
0.131,-0.108,-1.456,24.902,-136.841,354.004
0.093,0.097,-1.294,42.603,-157.898,336.182
0.086,0.262,-1.167,59.448,-170.349,312.622
0.098,0.369,-1.059,71.960,-175.476,285.889
0.108,0.414,-0.958,86.304,-174.316,258.789
0.117,0.468,-0.854,103.516,-168.274,233.948
0.101,0.561,-0.746,120.544,-159.119,210.876
0.063,0.657,-0.638,135.742,-147.461,188.171
0.024,0.750,-0.529,150.574,-134.644,165.466
-0.009,0.799,-0.440,166.321,-121.582,142.456
-0.023,0.794,-0.352,182.739,-109.924,119.019
-0.027,0.780,-0.242,201.660,-101.624,95.581
-0.024,0.766,-0.124,225.525,-96.863,71.777
0.001,0.706,-0.020,250.854,-96.191,47.913
-0.021,0.658,0.114,280.640,-101.074,26.062
-0.016,0.620,0.288,311.218,-111.572,7.141
0.001,0.566,0.483,329.834,-125.671,-11.230
0.018,0.536,0.639,345.276,-137.512,-32.043
0.021,0.496,0.845,355.713,-147.705,-57.312
-0.084,0.476,1.146,360.474,-151.245,-89.905
-0.100,0.497,1.464,348.267,-136.475,-129.700
-0.116,0.384,1.735,328.857,-99.304,-179.626
-0.100,0.196,1.996,306.458,-43.884,-236.511
-0.020,-0.083,2.255,275.391,26.672,-294.189
0.063,-0.470,2.490,233.398,110.596,-344.849
0.043,-0.933,2.423,169.250,200.317,-376.892
0.097,-1.335,1.967,66.589,280.273,-383.301
0.326,-1.802,1.381,-50.171,329.834,-366.638
0.617,-1.908,0.873,-130.066,339.722,-335.449
0.876,-1.812,0.542,-150.269,319.153,-300.049
0.849,-1.622,0.532,-123.108,288.574,-258.911
0.690,-1.450,0.714,-81.665,275.391,-209.290
0.468,-1.313,0.810,-65.857,293.274,-158.997
0.277,-1.282,0.818,-78.918,331.909,-120.972
0.128,-1.379,0.759,-107.361,374.634,-99.792
0.074,-1.572,0.492,-171.326,409.241,-89.111
0.236,-1.950,-0.036,-269.287,423.462,-84.167
0.648,-2.328,-0.546,-357.666,405.884,-81.482
1.050,-2.735,-1.020,-396.057,356.262,-77.454
1.354,-2.952,-1.349,-371.521,288.330,-53.040

1.051,-0.125,-0.452,-31.433,70.618,1.831
1.184,-0.256,-0.409,-22.827,51.208,10.681
1.227,-0.057,-0.249,-12.573,27.710,29.785
1.082,0.061,-0.088,-18.433,10.132,51.331
0.999,0.147,-0.068,-32.898,6.958,67.627
1.013,0.168,-0.132,-42.114,11.780,72.083
1.017,0.128,-0.198,-35.034,13.672,66.223
1.028,0.059,-0.171,-18.921,8.789,59.753
1.056,0.051,-0.054,-5.188,1.892,61.218
1.072,0.099,0.140,1.160,-0.427,69.031
1.064,0.180,0.287,-3.662,3.845,76.599
1.045,0.188,0.232,-20.508,13.367,78.308
1.042,0.130,0.123,-31.250,21.484,74.890
1.042,0.118,0.111,-29.114,22.766,70.740
1.006,0.103,0.191,-25.208,20.691,67.749
0.937,0.091,0.262,-22.827,19.348,67.261
0.894,0.078,0.299,-23.682,21.179,68.115
0.891,0.125,0.292,-27.771,25.696,67.505
0.869,0.033,0.182,-41.870,33.936,65.369
0.857,0.032,0.066,-58.533,41.626,63.965
0.839,0.048,-0.097,-77.209,47.729,64.636
0.842,0.068,-0.341,-94.299,51.208,65.674
0.875,0.099,-0.635,-104.065,46.753,67.017
0.926,0.143,-0.857,-102.600,31.311,68.359
0.937,0.203,-0.949,-86.243,7.996,68.970
0.931,0.240,-0.989,-65.308,-15.198,69.885
0.923,0.281,-1.028,-45.959,-33.142,72.327
0.912,0.320,-1.051,-27.405,-44.678,75.745
0.874,0.376,-1.024,-9.583,-50.781,79.346
0.831,0.449,-0.952,10.864,-52.246,82.214
0.782,0.536,-0.899,29.236,-50.110,83.069
0.740,0.640,-0.905,49.988,-44.922,80.566
0.698,0.703,-0.886,73.425,-40.527,73.669
0.640,0.735,-0.807,99.243,-38.330,62.988
0.577,0.757,-0.687,126.038,-37.598,50.293
0.522,0.777,-0.562,151.733,-36.987,36.743
0.484,0.782,-0.457,172.363,-36.133,21.729
0.470,0.755,-0.368,188.782,-35.339,5.127
0.470,0.702,-0.258,204.163,-34.363,-12.512
0.472,0.665,-0.119,219.788,-32.104,-31.616
0.460,0.652,0.006,232.117,-28.687,-50.842
0.442,0.659,0.095,240.051,-24.963,-69.824
0.447,0.642,0.182,245.300,-21.973,-89.355
0.438,0.596,0.260,248.352,-20.386,-109.558
0.422,0.527,0.335,248.596,-21.057,-130.249
0.402,0.429,0.408,244.019,-23.254,-151.245
0.392,0.321,0.482,233.398,-24.658,-171.204
0.383,0.220,0.534,219.727,-23.071,-189.514
0.389,0.122,0.566,204.346,-17.334,-206.055
0.394,0.028,0.600,195.801,-6.653,-220.764
0.402,-0.048,0.640,196.838,10.498,-234.131
0.407,-0.115,0.663,194.519,32.532,-246.704
0.409,-0.203,0.650,187.988,55.542,-256.653
0.418,-0.337,0.617,179.993,78.064,-263.672
0.449,-0.447,0.568,159.729,95.825,-266.541
0.536,-0.515,0.547,140.015,109.558,-265.991
0.620,-0.585,0.621,127.686,119.873,-267.151
0.651,-0.625,0.786,124.329,131.653,-269.409
0.600,-0.658,0.926,121.765,151.672,-270.508
0.516,-0.719,1.016,114.075,182.556,-268.311
0.399,-0.771,1.070,103.027,222.656,-263.000
0.236,-0.796,1.024,94.055,270.813,-255.493
0.040,-0.859,0.849,72.632,321.045,-243.896
-0.024,-0.956,0.635,29.358,361.389,-229.309
0.053,-1.173,0.454,-27.100,385.559,-214.417
0.222,-1.398,0.309,-75.623,392.944,-200.439
0.444,-1.638,0.132,-115.356,382.324,-187.866
0.657,-1.900,-0.108,-144.409,355.957,-171.021
0.923,-2.053,-0.239,-152.893,311.768,-141.052
1.142,-2.178,-0.134,-160.095,259.216,-97.717
1.264,-2.305,-0.008,-182.495,226.013,-41.077
1.220,-2.365,-0.011,-210.999,218.323,22.034
1.053,-2.367,-0.068,-228.088,225.220,81.482
0.824,-2.283,-0.111,-228.760,237.549,131.287
0.579,-2.110,-0.192,-228.149,252.197,173.767
0.380,-2.004,-0.305,-240.662,263.855,209.473
0.260,-2.008,-0.435,-261.414,267.578,237.915
0.198,-2.036,-0.579,-277.161,264.465,260.559
0.127,-2.036,-0.812,-283.630,260.071,282.227
0.062,-1.937,-1.112,-282.104,251.587,304.626
0.048,-1.787,-1.452,-276.978,233.276,324.890
0.061,-1.609,-1.767,-262.024,200.562,338.074
0.116,-1.436,-2.002,-233.643,154.236,344.116
0.175,-1.282,-2.133,-187.317,100.464,343.384
0.248,-1.143,-2.170,-133.667,43.945,337.524
0.355,-1.028,-2.098,-82.886,-11.169,329.712
0.435,-0.973,-1.910,-26.611,-57.312,322.083
0.488,-0.896,-1.692,22.034,-91.736,317.505
0.520,-0.779,-1.497,62.439,-112.854,317.505
0.520,-0.662,-1.348,84.900,-124.023,319.946
0.493,-0.530,-1.208,95.825,-128.235,323.608
0.450,-0.378,-1.122,98.999,-129.150,326.904
0.391,-0.198,-1.051,106.201,-128.113,328.613
0.297,0.005,-0.975,119.568,-128.357,322.327
0.224,0.148,-0.864,136.108,-130.981,306.885
0.169,0.297,-0.743,161.682,-131.775,284.180
0.121,0.436,-0.617,187.195,-130.676,255.737
0.086,0.543,-0.507,210.327,-126.404,223.022
0.079,0.605,-0.389,232.971,-117.920,187.805
0.059,0.655,-0.272,258.484,-105.347,152.100
0.019,0.737,-0.152,287.170,-90.332,116.516
0.013,0.757,0.021,320.801,-73.181,77.820
0.001,0.732,0.208,362.732,-53.467,34.668
-0.007,0.662,0.401,407.166,-31.921,-10.254
-0.005,0.544,0.630,443.176,-10.010,-56.580
0.008,0.446,0.903,465.332,13.855,-104.004
0.009,0.382,1.155,474.792,47.363,-151.489
0.005,0.228,1.324,459.656,88.379,-201.355
-0.024,0.023,1.390,432.434,133.606,-251.343
-0.035,-0.212,1.389,400.208,180.237,-297.363
0.028,-0.479,1.402,360.168,226.868,-334.412
0.150,-0.738,1.415,298.950,268.433,-359.070
0.378,-1.023,1.427,211.609,303.040,-369.629
0.654,-1.380,1.350,105.957,323.730,-367.676
0.873,-1.632,1.198,6.714,328.308,-351.257
0.989,-1.814,1.035,-79.163,318.359,-318.237
1.074,-1.955,0.944,-155.396,298.950,-267.700
1.106,-2.075,0.973,-222.168,283.386,-204.529
1.043,-2.247,0.968,-293.091,283.447,-133.240
0.923,-2.394,0.748,-372.131,301.270,-56.763
0.840,-2.501,0.383,-461.853,320.007,16.541
0.727,-2.592,-0.081,-540.527,325.500,77.576
0.642,-2.655,-0.619,-592.712,313.354,125.244
0.585,-2.627,-1.222,-610.779,288.452,165.222
0.661,-2.550,-1.758,-586.182,257.629,199.402
0.778,-2.448,-2.270,-528.320,225.952,227.661
0.886,-2.288,-2.611,-436.890,192.566,252.930
0.878,-2.032,-2.780,-310.059,158.691,280.701
0.797,-1.669,-2.733,-169.556,126.038,312.073
0.716,-1.338,-2.568,-43.884,91.980,342.407
0.678,-1.086,-2.276,54.932,53.955,365.417
0.626,-0.867,-1.878,135.132,14.099,377.319
0.499,-0.665,-1.464,191.467,-21.606,380.432
0.384,-0.385,-1.122,216.064,-50.171,377.136
0.279,-0.122,-0.910,207.214,-70.374,367.126
0.181,0.111,-0.804,177.246,-83.923,348.450
0.106,0.322,-0.759,142.883,-93.750,321.411
0.068,0.493,-0.732,122.559,-101.440,287.659
0.072,0.586,-0.713,118.835,-108.643,250.000
0.091,0.655,-0.662,128.723,-115.295,210.937
0.116,0.693,-0.566,148.987,-118.530,171.997
0.142,0.695,-0.430,177.612,-117.188,137.085
0.164,0.696,-0.252,208.191,-111.206,106.628
0.162,0.692,-0.095,230.957,-100.525,78.796
0.175,0.685,0.015,252.075,-84.778,53.040
0.189,0.649,0.105,274.597,-69.214,28.442
0.171,0.600,0.204,301.270,-57.251,2.686
0.126,0.546,0.329,343.689,-49.316,-24.170
0.082,0.535,0.547,387.939,-46.692,-55.176

1.028,-0.026,0.075,-22.949,33.997,-2.014
0.998,-0.164,0.115,-22.095,39.795,0.671
1.120,-0.103,0.130,-24.414,47.424,11.658
1.157,-0.101,0.121,-38.391,56.519,26.672
1.101,-0.068,0.068,-54.504,64.819,43.152
1.052,0.006,-0.042,-65.552,70.129,59.204
1.018,0.067,-0.168,-72.327,72.876,68.237
1.030,0.124,-0.285,-68.481,72.266,68.665
1.047,0.088,-0.398,-59.509,66.650,64.819
1.038,0.049,-0.487,-48.218,54.749,65.125
1.024,0.041,-0.529,-37.964,38.940,74.219
1.002,0.094,-0.601,-30.823,24.414,89.050
1.016,0.159,-0.708,-27.771,10.681,102.844
1.032,0.263,-0.762,-23.926,-3.906,112.244
1.021,0.361,-0.818,-20.569,-18.555,117.310
0.962,0.411,-0.895,-18.005,-32.593,119.873
0.869,0.417,-0.986,-7.751,-46.692,120.239
0.756,0.411,-1.010,14.038,-62.683,118.164
0.630,0.441,-0.977,44.189,-78.247,112.671
0.537,0.465,-0.925,84.167,-90.210,102.600
0.476,0.566,-0.949,121.399,-100.098,87.219
0.474,0.589,-0.918,154.114,-104.736,66.223
0.491,0.680,-0.824,186.646,-107.849,41.199
0.448,0.739,-0.782,208.557,-107.361,13.550
0.404,0.766,-0.753,224.792,-105.408,-14.038
0.367,0.786,-0.652,245.117,-103.760,-41.870
0.329,0.719,-0.448,273.437,-100.708,-70.435
0.296,0.611,-0.196,305.542,-93.140,-98.572
0.253,0.511,0.070,335.815,-77.087,-125.610
0.216,0.409,0.323,361.511,-50.171,-153.870
0.144,0.363,0.584,388.489,-11.353,-185.852
0.059,0.330,0.833,413.818,41.260,-223.145
0.000,0.191,0.932,422.791,105.835,-263.611
-0.003,-0.014,1.051,427.673,172.974,-302.368
0.047,-0.222,1.354,427.795,235.474,-334.534
0.019,-0.396,1.604,405.640,300.232,-359.375
-0.143,-0.611,1.459,353.882,369.629,-374.207
-0.234,-0.857,1.019,265.015,427.368,-377.075
-0.048,-1.033,0.529,155.029,455.261,-371.155
0.286,-1.266,0.155,73.608,441.162,-369.141
0.578,-1.603,0.071,42.297,393.250,-367.859
0.909,-1.944,0.148,37.720,334.351,-350.098
1.108,-2.080,0.289,43.335,284.790,-285.400
1.073,-2.125,0.359,23.682,257.446,-178.955
1.008,-2.087,0.375,-13.794,256.470,-78.186
0.899,-2.061,0.249,-70.801,272.827,-2.014
0.852,-2.078,0.115,-130.798,293.823,49.377
0.774,-2.177,0.043,-181.519,310.364,84.839
0.630,-2.183,-0.128,-235.229,322.449,119.080
0.538,-2.200,-0.403,-312.073,327.576,158.325
0.546,-2.344,-0.760,-401.245,320.923,196.655
0.604,-2.501,-1.166,-469.238,306.885,232.544
0.688,-2.624,-1.618,-502.197,292.114,267.944
0.752,-2.712,-2.076,-491.394,279.602,304.810
0.649,-2.673,-2.504,-433.960,262.634,346.558
0.426,-2.465,-2.818,-354.004,231.934,397.034
0.101,-2.207,-3.099,-265.503,179.871,455.933
-0.107,-1.831,-3.140,-165.649,102.356,517.822
-0.291,-1.390,-2.926,-70.679,10.315,572.876
-0.373,-1.021,-2.554,6.287,-75.195,604.919
-0.396,-0.753,-2.121,63.904,-145.142,607.422
-0.359,-0.520,-1.668,111.267,-193.909,587.097
-0.291,-0.271,-1.294,144.043,-218.567,551.453
-0.282,-0.004,-1.031,152.954,-222.595,509.766
-0.248,0.183,-0.864,145.081,-211.121,467.163
-0.254,0.467,-0.791,129.211,-190.796,421.082
-0.262,0.612,-0.769,120.789,-166.809,368.042
-0.259,0.781,-0.756,133.179,-142.273,311.096
-0.212,0.923,-0.675,167.786,-118.286,251.770
-0.197,0.974,-0.568,216.797,-93.018,190.857
-0.184,1.076,-0.447,271.057,-64.331,131.775
-0.126,1.093,-0.253,330.383,-30.212,74.341
-0.089,1.008,-0.015,378.662,7.690,17.395
-0.065,0.914,0.215,410.095,48.950,-35.889
-0.042,0.822,0.399,428.284,92.163,-85.327
-0.022,0.689,0.502,426.697,133.728,-132.385
0.008,0.548,0.497,415.955,168.701,-178.101
0.005,0.451,0.616,419.495,190.430,-225.098
-0.010,0.341,0.738,426.758,203.491,-273.804
-0.104,0.119,0.844,424.988,213.806,-324.890
-0.212,-0.159,0.829,407.715,225.830,-371.582
-0.255,-0.427,0.761,362.610,238.098,-407.776
-0.106,-0.690,0.844,299.194,244.812,-434.082
0.206,-1.047,1.128,226.440,247.314,-452.393
0.482,-1.393,1.334,144.226,256.042,-458.618
0.691,-1.677,1.308,35.217,272.461,-446.350
0.845,-1.978,1.108,-79.285,286.438,-415.588
0.966,-2.179,0.934,-168.274,293.518,-367.371
1.111,-2.385,0.808,-244.690,295.898,-303.528
1.256,-2.674,0.638,-318.054,299.011,-223.816
1.416,-2.886,0.449,-387.146,304.077,-121.765
1.446,-3.056,0.224,-454.407,306.274,-16.418
1.333,-3.069,0.044,-498.474,307.678,74.036
1.059,-2.959,-0.242,-537.476,314.392,148.376
0.720,-2.841,-0.712,-577.942,323.425,208.923
0.469,-2.698,-1.309,-600.708,323.608,256.165
0.393,-2.551,-1.938,-588.440,305.176,293.640
0.521,-2.423,-2.416,-518.616,270.203,325.012
0.571,-2.228,-2.780,-410.950,226.379,353.943
0.543,-1.975,-2.938,-287.231,176.697,385.864
0.492,-1.641,-2.828,-148.437,126.526,418.640
0.390,-1.269,-2.526,-21.729,78.125,446.167
0.301,-0.939,-2.141,77.515,35.706,463.379
0.210,-0.624,-1.732,142.700,-0.549,467.529
0.155,-0.356,-1.379,185.120,-28.564,458.313
0.136,-0.116,-1.147,197.754,-48.950,436.401
0.117,0.089,-0.993,186.768,-63.110,404.785
0.056,0.273,-0.878,167.786,-72.510,366.821
-0.006,0.465,-0.807,150.635,-78.064,325.012
-0.016,0.640,-0.749,138.916,-81.665,280.334
-0.016,0.770,-0.719,138.245,-82.153,234.619
0.027,0.835,-0.700,147.522,-80.322,188.477
0.093,0.871,-0.626,170.227,-77.881,143.860
0.122,0.894,-0.491,202.454,-74.036,102.234
0.156,0.876,-0.349,231.812,-67.444,65.613
0.191,0.855,-0.210,254.272,-57.678,35.156
0.214,0.863,-0.087,270.264,-46.265,9.827
0.220,0.843,0.019,282.593,-33.875,-11.780
0.193,0.809,0.099,297.180,-22.644,-31.860
0.180,0.805,0.176,307.678,-15.381,-53.772
0.164,0.757,0.259,325.867,-9.094,-80.444
0.143,0.625,0.393,345.398,-2.014,-112.183
0.129,0.500,0.561,358.337,10.132,-146.606
0.100,0.369,0.717,362.183,32.288,-183.105
0.106,0.195,0.816,360.229,64.697,-220.093
0.132,0.040,0.851,347.046,102.356,-254.822
0.165,-0.143,0.791,323.364,138.855,-286.011
0.214,-0.316,0.694,293.945,169.067,-313.416
0.269,-0.470,0.610,262.878,190.063,-334.656
0.331,-0.588,0.593,234.741,201.721,-348.694
0.454,-0.700,0.666,206.421,208.130,-356.079
0.548,-0.865,0.747,171.204,214.233,-356.506
0.616,-1.018,0.768,125.183,222.473,-347.534
0.699,-1.178,0.713,63.660,230.347,-327.942
0.774,-1.310,0.601,-0.427,234.009,-299.988
0.829,-1.429,0.515,-52.856,234.253,-267.090
0.854,-1.507,0.458,-95.215,234.985,-230.225
0.837,-1.556,0.364,-140.137,239.868,-187.134
0.831,-1.603,0.225,-192.566,246.277,-143.860
0.863,-1.672,0.104,-245.361,249.390,-106.079
0.934,-1.771,0.011,-289.368,248.474,-75.256
0.985,-1.881,-0.078,-326.172,244.873,-50.049
1.005,-1.978,-0.192,-364.136,238.525,-24.902
1.005,-2.098,-0.401,-406.555,230.652,6.165
1.018,-2.191,-0.709,-440.125,222.595,45.166
1.005,-2.215,-1.035,-453.430,210.571,86.365
0.946,-2.185,-1.333,-435.181,192.566,126.770
0.887,-2.082,-1.577,-383.118,170.959,167.908
0.820,-1.907,-1.759,-316.650,145.996,209.290

1.026,0.024,-0.505,269.470,216.309,6.714
1.143,-0.204,-0.523,297.302,209.656,30.334
1.232,-0.277,-0.345,317.566,184.998,73.669
1.188,-0.051,-0.081,315.857,161.133,127.930
0.960,0.137,0.118,297.607,149.414,173.584
0.811,0.365,0.161,290.344,157.288,201.660
0.745,0.497,0.113,298.828,178.528,210.266
0.654,0.510,0.016,322.449,200.745,207.886
0.587,0.545,-0.048,350.525,213.074,207.092
0.547,0.714,0.048,379.517,215.515,208.984
0.474,0.952,0.173,404.480,216.797,209.839
0.382,1.072,0.255,414.429,222.107,204.163
0.351,1.046,0.313,415.283,227.966,193.054
0.281,0.981,0.403,414.673,230.957,182.190
0.180,0.978,0.538,408.386,226.746,176.758
0.028,1.085,0.693,395.081,216.003,174.805
-0.173,1.151,0.782,370.972,200.562,167.114
-0.242,1.214,0.875,345.215,185.425,150.024
-0.334,1.325,0.916,319.702,176.086,123.352
-0.313,1.363,0.943,291.748,166.504,87.891
-0.243,1.374,0.937,264.832,165.894,48.645
-0.302,1.399,0.933,239.929,169.678,10.193
-0.228,1.392,1.162,218.506,180.969,-21.240
-0.141,1.279,1.191,182.922,203.064,-47.485
-0.102,1.152,1.137,127.563,224.731,-67.505
-0.015,1.039,1.111,70.129,240.906,-80.933
0.067,0.891,1.065,15.442,256.653,-89.050
0.076,0.763,0.943,-45.044,272.644,-91.370
0.074,0.680,0.803,-101.501,285.706,-88.013
0.043,0.590,0.689,-153.687,297.913,-81.665
-0.041,0.449,0.612,-205.017,312.744,-75.989
-0.097,0.230,0.526,-249.634,331.421,-71.899
-0.107,-0.015,0.384,-285.828,354.492,-68.115
-0.158,-0.230,0.155,-318.665,378.296,-61.951
-0.205,-0.381,-0.180,-334.106,396.912,-51.880
-0.209,-0.484,-0.352,-317.505,404.724,-38.452
-0.316,-0.437,-0.635,-298.096,420.044,-21.362
-0.169,-0.419,-1.098,-283.630,428.528,-6.226
-0.036,-0.155,-1.551,-291.260,414.124,0.671
0.193,-0.435,-2.050,-291.687,372.559,-4.089
0.363,-0.499,-2.333,-273.315,307.251,-4.822
0.584,-0.733,-2.458,-216.370,237.366,5.676
0.770,-0.815,-2.367,-140.198,178.162,33.508
0.876,-0.805,-2.301,-55.420,136.292,70.007
0.842,-0.756,-2.159,23.193,106.323,109.131
0.707,-0.608,-2.008,78.247,81.787,150.879
0.570,-0.495,-1.842,96.985,57.312,194.214
0.385,-0.420,-1.700,95.520,33.020,237.854
0.176,-0.353,-1.605,88.623,7.080,280.518
0.104,-0.325,-1.624,72.510,-20.752,322.144
-0.021,-0.382,-1.835,51.514,-52.856,362.000
-0.231,-0.521,-2.030,58.960,-96.252,404.602
-0.564,-0.561,-1.983,103.516,-154.419,457.642
-1.102,-0.388,-1.703,155.518,-221.863,520.752
-1.666,0.026,-1.254,182.617,-285.767,581.970
-2.231,0.555,-1.178,160.034,-335.022,625.549
-2.509,0.937,-0.988,108.521,-379.211,634.033
-2.565,1.270,-0.968,52.246,-407.715,617.432
-2.573,1.629,-1.098,29.053,-422.119,576.172
-2.599,1.859,-1.151,38.574,-434.448,506.348
-2.387,2.164,-0.969,70.923,-440.979,419.067
-2.410,2.155,-0.722,114.990,-428.650,320.312
-2.359,2.196,-0.405,156.921,-393.005,221.863
-2.138,2.206,-0.097,187.866,-337.463,125.244
-1.909,2.031,0.080,203.674,-264.893,28.320
-1.679,1.864,0.117,205.078,-184.692,-63.293
-1.470,1.591,0.046,198.975,-109.009,-147.400
-1.286,1.450,-0.048,192.139,-48.584,-220.520
-1.095,1.337,-0.156,192.017,-10.376,-279.785
-1.004,1.186,-0.182,202.698,5.981,-327.881
-0.914,1.144,-0.033,211.975,10.071,-367.126
-0.806,1.005,0.162,207.764,6.348,-399.536
-0.718,0.808,0.446,182.373,2.686,-427.979
-0.608,0.615,0.688,135.986,7.874,-449.951
-0.460,0.373,0.932,74.219,24.414,-463.623
-0.267,0.069,1.243,10.681,56.641,-472.046
-0.085,-0.281,1.577,-45.715,108.093,-475.403
0.033,-0.599,1.703,-108.704,178.040,-468.933
-0.033,-0.875,1.423,-181.824,257.812,-447.144
-0.198,-1.061,0.958,-253.723,329.773,-407.715
-0.430,-1.283,0.450,-295.593,388.184,-358.276
-0.485,-1.218,-0.003,-302.795,433.472,-305.359
-0.461,-1.282,-0.338,-291.321,463.440,-263.794
-0.319,-1.512,-0.670,-281.006,481.506,-232.239
0.068,-1.448,-1.115,-277.222,489.197,-201.782
0.490,-1.154,-1.566,-283.142,483.582,-175.232
0.592,-1.235,-2.001,-269.836,462.036,-168.152
0.582,-1.385,-2.344,-221.191,419.739,-163.452
0.701,-1.425,-2.589,-147.461,356.995,-142.761
0.818,-1.416,-2.683,-77.576,278.992,-102.966
0.927,-1.439,-2.586,-19.409,193.481,-45.288
0.851,-1.407,-2.355,29.175,116.943,27.161
0.805,-1.251,-2.000,53.894,58.105,113.770
0.670,-1.094,-1.785,34.546,16.479,208.923
0.433,-1.006,-1.801,-26.917,-2.014,298.035
0.124,-0.910,-2.116,-103.149,-20.691,379.456
-0.177,-0.731,-2.559,-162.781,-58.594,451.477
-0.509,-0.544,-2.874,-185.669,-120.972,510.315
-0.787,-0.359,-2.974,-170.105,-196.533,554.382
-1.065,-0.181,-2.923,-134.705,-267.578,581.299
-1.375,-0.025,-2.727,-92.102,-324.463,592.163
-1.620,0.234,-2.391,-29.663,-359.619,590.576
-1.794,0.657,-1.999,45.776,-372.314,574.097
-1.845,1.080,-1.619,109.558,-369.141,538.269
-1.758,1.368,-1.295,146.851,-357.483,480.469
-1.687,1.666,-1.082,170.471,-340.637,403.625
-1.608,1.757,-0.885,187.439,-321.472,311.523
-1.397,1.763,-0.622,209.778,-296.387,210.144
-1.135,1.509,-0.320,234.192,-256.531,104.614
-0.966,1.300,-0.124,248.657,-196.777,3.662
-0.753,1.151,0.016,251.648,-123.291,-87.341
-0.577,0.944,0.102,247.864,-42.358,-168.640
-0.405,0.828,0.107,256.165,35.278,-238.098
-0.245,0.595,0.141,278.503,101.257,-295.227
-0.150,0.384,0.118,297.668,163.696,-334.045
-0.097,0.179,0.123,320.923,219.727,-365.784
-0.059,-0.027,0.120,332.214,267.212,-386.963
0.004,-0.142,0.108,324.219,306.946,-392.761
0.066,-0.295,0.130,287.964,338.257,-389.404
0.160,-0.471,0.094,231.689,362.122,-382.141
0.281,-0.576,0.027,146.545,374.084,-376.038
0.333,-0.683,-0.035,46.387,372.803,-375.183
0.387,-0.938,-0.149,-41.626,356.567,-375.732
0.471,-1.033,-0.228,-102.173,327.393,-364.319
0.536,-1.069,-0.368,-149.780,294.128,-336.609
0.525,-1.106,-0.443,-196.777,264.099,-291.748
0.467,-1.161,-0.506,-223.022,243.835,-234.375
0.417,-1.183,-0.618,-237.793,235.962,-170.166
0.416,-1.167,-0.812,-250.854,239.929,-108.215
0.426,-1.097,-1.029,-261.780,252.136,-53.162
0.436,-1.104,-1.240,-272.522,264.954,-10.071
0.455,-1.225,-1.449,-280.457,271.912,21.057
0.451,-1.309,-1.645,-282.104,268.005,45.288
0.523,-1.388,-1.734,-268.066,252.319,65.613
0.459,-1.504,-1.719,-241.577,232.849,89.905
0.405,-1.543,-1.701,-219.360,214.355,128.845
0.363,-1.525,-1.758,-228.516,196.960,180.847
0.252,-1.503,-1.890,-251.648,177.490,238.770
0.111,-1.473,-2.047,-262.024,154.785,298.157
0.019,-1.395,-2.204,-261.353,126.709,355.286
-0.066,-1.296,-2.331,-256.836,92.468,403.809
-0.179,-1.176,-2.400,-240.601,54.077,440.979
-0.288,-1.055,-2.420,-208.862,14.160,467.407
-0.365,-0.940,-2.397,-176.575,-25.879,483.887
-0.445,-0.826,-2.359,-143.860,-66.345,492.249
-0.496,-0.725,-2.317,-106.567,-104.004,493.774
-0.513,-0.654,-2.227,-64.453,-137.939,488.770
-0.521,-0.604,-2.053,-9.827,-165.344,476.868
-0.500,-0.523,-1.805,53.955,-184.875,457.886

0.925,0.069,-0.762,20.081,-76.416,77.026
0.930,0.031,-0.727,31.860,-91.919,87.402
0.925,0.122,-0.624,46.936,-109.070,100.220
0.835,0.216,-0.559,54.749,-117.432,113.953
0.760,0.395,-0.435,65.735,-122.803,124.084
0.726,0.533,-0.342,81.299,-119.995,123.230
0.712,0.594,-0.299,96.558,-113.525,114.136
0.693,0.681,-0.324,108.154,-110.474,102.600
0.646,0.797,-0.424,115.112,-114.441,89.600
0.588,0.955,-0.436,122.192,-126.648,73.059
0.520,1.119,-0.301,131.226,-140.930,49.316
0.482,1.196,-0.074,135.254,-150.696,17.944
0.454,1.159,0.139,131.104,-151.062,-16.174
0.456,1.115,0.365,120.422,-143.433,-49.011
0.458,1.117,0.581,108.215,-128.601,-78.491
0.461,1.013,0.677,99.304,-101.501,-105.225
0.497,0.854,0.628,88.074,-67.322,-127.625
0.498,0.840,0.541,76.538,-36.499,-144.104
0.446,0.923,0.502,63.965,-15.442,-159.546
0.366,0.794,0.458,57.312,5.188,-179.077
0.323,0.669,0.411,58.411,27.771,-203.491
0.305,0.492,0.393,67.139,56.152,-229.980
0.293,0.333,0.445,82.397,91.064,-254.333
0.292,0.196,0.546,89.539,129.944,-276.367
0.260,0.033,0.660,91.187,175.171,-295.044
0.215,-0.146,0.711,73.914,223.450,-309.143
0.131,-0.353,0.726,44.739,270.813,-315.857
-0.015,-0.559,0.659,8.911,316.711,-316.895
-0.200,-0.654,0.508,-26.245,360.596,-311.035
-0.363,-0.694,0.337,-59.326,402.283,-301.636
-0.468,-0.799,0.178,-95.398,436.829,-294.617
-0.490,-1.026,0.043,-134.521,459.717,-291.016
-0.313,-1.318,-0.105,-188.843,466.492,-292.786
-0.095,-1.761,-0.264,-251.892,452.637,-298.401
0.196,-2.248,-0.362,-305.603,420.105,-294.312
0.507,-2.653,-0.329,-347.168,378.540,-265.869
0.751,-2.997,-0.294,-379.089,349.426,-208.008
0.825,-3.234,-0.360,-393.677,348.694,-125.916
0.778,-3.249,-0.500,-375.427,371.094,-32.593
0.675,-3.108,-0.688,-343.628,401.306,62.927
0.495,-2.865,-0.984,-330.200,418.274,155.334
0.301,-2.494,-1.320,-342.834,406.372,238.220
0.167,-2.137,-1.626,-377.258,367.065,301.025
0.122,-1.924,-1.848,-414.429,312.744,339.966
0.170,-1.833,-2.077,-434.326,258.606,364.624
0.249,-1.771,-2.290,-432.800,206.970,386.475
0.354,-1.642,-2.503,-408.081,154.480,412.537
0.427,-1.527,-2.749,-373.291,98.816,442.688
0.462,-1.421,-2.880,-324.707,36.072,473.511
0.391,-1.307,-2.764,-254.822,-28.503,503.357
0.218,-1.107,-2.403,-162.415,-82.520,533.020
0.007,-0.786,-1.881,-60.059,-115.479,557.190
-0.109,-0.396,-1.386,30.457,-123.962,565.491
-0.114,-0.023,-1.085,89.905,-114.990,551.147
-0.117,0.341,-0.940,130.310,-98.328,515.747
-0.140,0.733,-0.905,158.630,-86.121,460.754
-0.105,1.065,-0.951,176.270,-86.792,389.221
-0.068,1.329,-0.984,195.190,-101.318,306.396
-0.035,1.451,-0.903,222.229,-124.756,218.140
-0.007,1.389,-0.718,256.653,-148.254,130.310
0.021,1.204,-0.505,286.438,-164.124,50.537
0.052,0.969,-0.329,306.824,-167.603,-15.991
0.075,0.700,-0.165,323.425,-160.095,-69.092
0.090,0.456,-0.002,338.928,-143.921,-111.877
0.083,0.312,0.171,361.572,-118.896,-148.315
0.057,0.229,0.332,391.479,-84.534,-184.692
0.014,0.105,0.493,418.091,-43.335,-224.243
-0.000,-0.040,0.616,440.125,4.211,-264.343
-0.004,-0.239,0.610,457.825,60.730,-298.340
-0.081,-0.452,0.427,454.651,117.493,-320.190
-0.223,-0.570,0.203,437.439,166.077,-330.811
-0.308,-0.592,0.091,420.349,206.055,-340.088
-0.381,-0.663,0.008,392.212,237.183,-356.934
-0.507,-0.878,-0.047,348.755,257.874,-376.892
-0.627,-1.017,-0.069,310.852,271.912,-392.761
-0.605,-1.112,-0.110,278.748,284.973,-401.245
-0.549,-1.265,-0.193,228.394,295.593,-402.222
-0.420,-1.517,-0.271,163.696,294.678,-400.574
-0.307,-1.800,-0.313,109.558,280.762,-400.330
-0.071,-2.095,-0.270,82.520,263.794,-397.339
0.163,-2.381,-0.166,57.617,255.127,-381.775
0.230,-2.565,-0.101,33.752,262.878,-344.238
0.288,-2.645,-0.054,9.094,284.058,-281.860
0.350,-2.648,-0.078,-23.437,312.927,-198.914
0.301,-2.715,-0.152,-59.204,342.712,-110.779
0.240,-2.668,-0.185,-97.412,366.699,-27.283
0.089,-2.534,-0.300,-140.808,388.550,44.922
-0.084,-2.376,-0.439,-186.035,409.302,105.103
-0.197,-2.266,-0.594,-227.173,427.307,153.870
-0.249,-2.213,-0.817,-270.447,437.561,195.374
-0.251,-2.143,-1.088,-317.688,435.669,232.910
-0.211,-2.144,-1.430,-364.502,419.983,264.282
-0.103,-2.196,-1.751,-400.085,389.282,291.748
0.019,-2.230,-2.031,-421.021,344.177,319.336
0.128,-2.251,-2.260,-425.659,288.269,348.145
0.181,-2.213,-2.445,-406.494,230.408,382.935
0.175,-2.136,-2.613,-363.403,171.997,425.903
0.042,-1.915,-2.672,-286.926,118.225,470.886
-0.083,-1.581,-2.545,-179.077,71.716,507.263
-0.127,-1.318,-2.352,-75.684,34.058,533.386
-0.194,-1.062,-2.094,13.916,0.977,548.401
-0.220,-0.835,-1.785,91.309,-31.433,551.270
-0.222,-0.620,-1.445,151.184,-62.805,542.053
-0.229,-0.368,-1.139,191.345,-88.074,522.949
-0.263,0.008,-0.973,207.153,-107.239,494.873
-0.244,0.432,-0.934,208.862,-122.986,452.637
-0.216,0.704,-0.905,198.792,-144.348,389.587
-0.216,0.859,-0.891,197.388,-171.875,311.707
-0.182,0.903,-0.820,206.787,-202.271,226.746
-0.138,0.791,-0.727,225.464,-231.018,141.052
-0.138,0.538,-0.582,262.451,-251.160,62.073
-0.150,0.327,-0.363,315.674,-255.371,-8.118
-0.130,0.004,-0.097,367.554,-241.272,-70.984
-0.094,-0.260,0.194,426.147,-206.482,-122.070
-0.105,-0.447,0.379,480.286,-152.466,-158.936
-0.153,-0.579,0.455,523.437,-87.036,-184.875
-0.207,-0.652,0.467,560.059,-18.311,-205.688
-0.251,-0.697,0.405,582.458,46.753,-223.877
-0.309,-0.794,0.297,580.261,103.149,-239.502
-0.364,-0.945,0.183,546.082,145.264,-250.488
-0.188,-1.156,0.192,468.018,172.363,-260.193
-0.042,-1.455,0.183,361.145,186.462,-284.729
-0.110,-1.762,0.156,290.039,184.875,-326.904
-0.008,-1.868,0.422,268.433,174.011,-354.858
0.095,-1.751,0.589,227.783,178.101,-355.652
-0.050,-1.738,0.555,147.217,201.782,-338.135
-0.108,-1.704,0.544,70.374,239.441,-301.758
-0.109,-1.806,0.421,-3.601,290.833,-260.681
-0.146,-1.946,0.286,-63.110,347.107,-225.037
-0.113,-2.123,0.117,-118.042,398.254,-188.660
-0.024,-2.331,-0.100,-172.424,434.631,-149.841
0.073,-2.558,-0.210,-213.440,449.646,-106.079
0.207,-2.759,-0.264,-253.235,452.026,-52.368
0.330,-2.960,-0.422,-307.800,454.590,7.751
0.387,-3.138,-0.686,-364.563,460.999,72.632
0.384,-3.259,-1.061,-412.231,463.440,143.921
0.337,-3.276,-1.526,-453.308,452.637,217.224
0.318,-3.221,-1.978,-480.957,420.776,287.476
0.272,-3.117,-2.351,-482.239,370.972,357.666
0.234,-2.900,-2.656,-457.703,310.242,429.626
0.230,-2.630,-2.868,-411.865,245.544,502.075
0.078,-2.363,-2.942,-342.285,178.955,569.214
-0.166,-2.039,-2.877,-240.051,112.000,632.690
-0.407,-1.619,-2.619,-127.991,46.692,690.430
-0.675,-1.182,-2.219,-20.142,-13.550,729.614
-0.889,-0.732,-1.710,76.538,-64.270,742.004
-0.968,-0.309,-1.149,153.992,-96.863,726.440
-0.922,0.164,-0.667,207.458,-106.445,681.946
-0.817,0.622,-0.386,226.685,-97.839,610.901

0.131,1.156,-0.864,40.405,-25.024,83.374
0.095,1.065,-0.841,45.288,-12.146,73.303
0.255,1.280,-0.800,55.786,-1.709,75.867
0.245,1.463,-0.742,60.181,8.057,82.336
0.092,1.646,-0.805,55.786,15.442,91.064
-0.067,1.780,-0.834,54.443,12.939,92.224
-0.240,1.863,-0.877,51.392,3.662,84.534
-0.443,1.917,-0.872,47.668,-8.606,72.021
-0.538,1.872,-0.834,44.373,-26.367,57.312
-0.677,1.907,-0.770,34.668,-42.908,51.086
-0.856,1.993,-0.616,33.264,-56.885,45.654
-1.001,2.119,-0.427,28.992,-63.843,33.630
-1.134,2.107,-0.244,19.897,-62.195,13.306
-1.264,2.110,-0.031,16.663,-53.406,-12.451
-1.315,2.146,0.325,25.391,-44.861,-46.997
-1.268,2.120,0.583,29.358,-34.912,-88.257
-1.120,1.896,0.788,22.095,-22.217,-130.676
-1.012,1.557,0.895,12.329,-5.005,-170.898
-0.953,1.167,1.060,8.301,16.235,-202.942
-1.052,1.260,1.040,4.333,42.542,-228.271
-0.997,0.878,0.994,19.592,69.153,-264.221
-0.926,0.869,1.050,2.991,89.722,-288.208
-1.008,0.622,1.002,-41.321,105.835,-305.359
-1.034,0.380,0.907,-95.215,114.990,-314.758
-1.025,0.164,0.772,-143.738,121.155,-322.571
-1.010,-0.084,0.565,-178.528,125.671,-335.083
-0.841,-0.426,0.292,-190.369,129.639,-348.145
-0.585,-0.624,0.148,-178.894,131.409,-351.868
-0.413,-0.821,0.124,-161.926,138.306,-352.783
-0.247,-1.038,0.060,-144.165,151.611,-345.642
-0.093,-1.119,0.030,-128.052,160.950,-319.092
-0.032,-1.077,0.039,-127.014,163.635,-277.466
-0.042,-1.051,-0.112,-152.283,165.344,-236.267
-0.086,-1.132,-0.357,-182.678,163.330,-206.299
-0.095,-1.129,-0.461,-189.148,151.611,-187.195
-0.083,-1.137,-0.525,-182.373,141.541,-174.561
-0.090,-1.203,-0.550,-172.729,139.465,-161.011
-0.081,-1.260,-0.601,-158.325,144.775,-141.724
-0.040,-1.318,-0.711,-147.400,155.457,-116.943
-0.005,-1.306,-0.822,-132.141,163.574,-88.867
-0.021,-1.278,-0.880,-117.065,165.649,-59.937
-0.096,-1.173,-0.921,-107.666,167.297,-31.738
-0.194,-1.045,-0.963,-103.760,165.161,-7.751
-0.291,-0.939,-1.025,-106.323,160.522,8.545
-0.333,-0.917,-1.156,-113.586,154.907,15.991
-0.312,-0.986,-1.318,-117.371,148.254,16.663
-0.286,-1.057,-1.416,-110.962,140.808,17.761
-0.261,-1.129,-1.495,-99.182,134.583,25.513
-0.232,-1.164,-1.630,-88.806,130.798,41.260
-0.223,-1.147,-1.770,-77.759,127.258,59.753
-0.238,-1.111,-1.901,-66.467,122.437,76.538
-0.263,-1.073,-2.011,-55.481,116.028,90.271
-0.279,-1.037,-2.099,-43.884,107.788,100.952
-0.291,-0.962,-2.182,-29.358,98.022,110.291
-0.277,-0.870,-2.192,-10.437,85.510,117.126
-0.241,-0.842,-2.168,7.263,71.594,120.667
-0.186,-0.833,-2.055,23.743,58.777,124.878
-0.177,-0.820,-2.022,36.926,51.392,132.324
-0.128,-0.748,-1.884,47.791,45.959,144.165
-0.103,-0.739,-1.941,51.208,45.959,159.546
-0.176,-0.586,-1.941,54.871,39.917,181.580
-0.218,-0.453,-1.916,60.120,34.119,189.148
-0.227,-0.317,-1.895,61.890,24.780,197.998
-0.254,-0.205,-1.853,60.242,13.855,208.557
-0.279,-0.084,-1.797,61.462,5.249,214.050
-0.279,0.016,-1.787,62.561,0.549,215.637
-0.299,0.106,-1.770,65.979,-3.052,218.018
-0.328,0.197,-1.731,70.801,-7.202,222.412
-0.357,0.306,-1.713,74.097,-10.315,229.248
-0.364,0.396,-1.759,73.669,-12.756,238.281
-0.423,0.486,-1.757,75.134,-17.334,249.512
-0.564,0.642,-1.736,77.881,-23.682,264.282
-0.738,0.810,-1.724,76.721,-29.846,276.794
-0.919,1.048,-1.709,76.782,-36.255,282.227
-1.074,1.301,-1.658,77.759,-44.861,276.855
-1.217,1.523,-1.544,77.698,-54.993,259.277
-1.322,1.660,-1.463,72.632,-64.148,233.765
-1.357,1.752,-1.397,67.749,-72.449,201.172
-1.370,1.702,-1.351,60.364,-84.473,163.147
-1.327,1.654,-1.335,53.772,-87.036,130.310
-1.285,1.591,-1.282,60.120,-86.548,97.900
-1.247,1.527,-1.200,70.679,-82.275,67.139
-1.203,1.468,-1.113,80.872,-77.026,39.124
-1.181,1.407,-1.017,88.501,-74.646,13.977
-1.169,1.364,-0.875,92.468,-75.806,-9.399
-1.154,1.320,-0.691,93.262,-80.078,-34.241
-1.083,1.273,-0.444,90.698,-84.595,-61.462
-1.067,1.159,-0.247,84.473,-85.510,-86.975
-1.009,1.071,-0.121,73.120,-82.581,-105.347
-0.959,1.006,-0.055,61.707,-75.928,-120.239
-0.885,0.944,0.010,52.673,-67.871,-134.949
-0.826,0.828,0.136,48.462,-59.387,-151.489
-0.757,0.713,0.257,44.800,-48.950,-169.189
-0.664,0.580,0.316,37.415,-36.865,-185.425
-0.563,0.410,0.370,29.663,-25.696,-198.669
-0.474,0.241,0.436,23.071,-16.174,-206.970
-0.401,0.124,0.468,13.672,-8.179,-208.191
-0.350,0.058,0.441,-2.380,-3.601,-203.003
-0.303,-0.004,0.388,-21.118,-3.418,-196.228
-0.231,-0.087,0.347,-37.659,-5.432,-192.383
-0.161,-0.211,0.336,-47.363,-6.836,-192.200
-0.083,-0.322,0.346,-50.659,-4.761,-191.711
-0.016,-0.428,0.354,-49.194,2.869,-188.538
0.043,-0.547,0.326,-43.640,17.334,-184.265
0.112,-0.673,0.259,-35.522,36.316,-179.199
0.171,-0.779,0.178,-26.550,55.664,-171.204
0.207,-0.831,0.081,-21.729,71.411,-158.325
0.229,-0.845,-0.034,-24.048,81.238,-142.273
0.256,-0.884,-0.158,-30.884,84.778,-126.709
0.264,-0.919,-0.224,-38.635,83.496,-112.427
0.260,-0.932,-0.271,-47.424,81.848,-99.976
0.248,-0.962,-0.333,-56.274,82.336,-89.905
0.219,-1.015,-0.424,-62.317,84.778,-81.787
0.193,-1.088,-0.573,-66.223,89.111,-73.547
0.198,-1.161,-0.765,-67.322,94.116,-63.782
0.197,-1.212,-0.963,-63.354,96.985,-51.880
0.218,-1.237,-1.122,-55.237,97.412,-37.781
0.241,-1.252,-1.213,-42.969,97.168,-24.475
0.254,-1.273,-1.275,-28.564,98.633,-12.390
0.251,-1.273,-1.341,-14.648,102.417,1.465
0.198,-1.261,-1.396,-2.075,106.384,16.174
0.111,-1.209,-1.423,8.362,108.093,30.151
0.038,-1.120,-1.460,14.099,107.544,43.457
0.009,-1.010,-1.503,16.479,105.896,54.871
-0.038,-0.902,-1.547,18.921,103.027,62.805
-0.089,-0.792,-1.551,21.240,97.656,68.054
-0.118,-0.724,-1.541,18.982,91.919,71.594
-0.133,-0.689,-1.600,12.512,87.769,75.500
-0.150,-0.687,-1.724,4.517,83.374,80.627
-0.170,-0.652,-1.815,-0.061,75.745,87.036
-0.204,-0.701,-1.886,-1.770,64.392,92.529
-0.200,-0.692,-1.916,2.136,57.190,102.661
-0.227,-0.610,-1.917,13.550,54.321,116.821
-0.285,-0.485,-1.903,30.762,55.176,130.920
-0.361,-0.342,-1.871,46.326,56.335,144.653
-0.432,-0.203,-1.843,57.739,55.115,154.541
-0.500,-0.059,-1.852,61.340,49.622,161.560
-0.554,0.069,-1.869,56.519,40.100,166.199
-0.593,0.136,-1.916,50.110,29.602,168.274
-0.607,0.206,-1.863,45.105,14.160,174.011
-0.674,0.263,-1.880,43.823,4.089,178.101
-0.731,0.370,-1.909,49.011,-0.916,183.105
-0.838,0.510,-1.905,55.237,-6.165,190.125
-0.941,0.674,-1.936,57.556,-12.878,194.763
-1.033,0.828,-1.968,57.007,-22.095,194.458
-1.117,0.975,-1.958,58.594,-33.936,188.904
-1.166,1.083,-1.910,61.035,-45.654,177.979
-1.211,1.187,-1.825,65.125,-55.786,163.574
-1.266,1.328,-1.727,68.481,-63.843,148.926

-0.142,0.693,-0.877,-2.319,-41.321,-26.672
-0.086,0.739,-0.818,-13.977,-41.565,-41.321
-0.105,0.685,-0.841,-18.005,-41.687,-54.932
-0.117,0.659,-0.858,-19.531,-41.565,-65.369
-0.128,0.714,-0.871,-13.306,-41.992,-72.388
-0.193,0.830,-0.881,-6.836,-44.067,-81.360
-0.236,0.895,-0.884,-3.418,-49.255,-96.313
-0.256,0.873,-0.853,0.122,-58.289,-118.225
-0.281,0.761,-0.739,2.625,-68.665,-141.418
-0.262,0.620,-0.454,2.258,-76.294,-160.400
-0.292,0.558,-0.063,-6.897,-74.158,-174.072
-0.305,0.539,-0.001,-27.039,-53.589,-184.570
-0.278,0.497,-0.208,-46.570,-27.100,-195.496
-0.247,0.407,-0.408,-45.959,-8.728,-212.036
-0.228,0.294,-0.464,-29.785,-0.732,-231.812
-0.220,0.150,-0.439,-11.475,2.563,-250.732
-0.173,-0.031,-0.391,0.427,4.150,-266.418
-0.196,-0.213,-0.410,3.845,3.479,-277.466
-0.117,-0.471,-0.243,5.676,1.953,-284.119
-0.037,-0.658,-0.031,4.272,9.521,-283.447
0.016,-0.813,-0.048,-10.315,34.607,-271.606
0.074,-0.928,-0.226,-33.875,64.026,-250.488
0.126,-0.994,-0.421,-52.429,83.618,-226.868
0.192,-1.090,-0.531,-60.730,89.355,-201.782
0.244,-1.161,-0.536,-58.716,87.891,-173.096
0.265,-1.192,-0.490,-51.208,88.562,-141.113
0.258,-1.220,-0.474,-44.922,95.459,-107.849
0.234,-1.248,-0.529,-41.138,107.544,-74.097
0.201,-1.254,-0.614,-41.809,118.896,-40.710
0.171,-1.244,-0.657,-42.969,125.366,-9.216
0.118,-1.191,-0.692,-43.152,130.005,20.874
0.042,-1.096,-0.757,-46.021,135.315,49.255
-0.035,-1.040,-0.859,-51.941,139.465,72.266
-0.083,-1.062,-0.961,-58.655,141.479,89.294
-0.082,-1.098,-1.054,-61.401,141.907,104.126
-0.115,-1.131,-1.146,-63.599,141.968,120.361
-0.160,-1.152,-1.301,-68.054,143.066,139.954
-0.221,-1.117,-1.482,-63.416,143.921,159.424
-0.251,-1.123,-1.591,-52.368,141.357,173.767
-0.275,-1.080,-1.710,-36.682,138.428,188.354
-0.299,-1.023,-1.810,-18.311,134.949,200.928
-0.317,-0.967,-1.856,9.277,130.005,210.510
-0.322,-0.899,-1.854,32.410,123.108,219.543
-0.321,-0.819,-1.853,53.528,116.638,231.323
-0.324,-0.748,-1.897,64.209,110.779,245.117
-0.339,-0.684,-1.959,73.425,104.065,260.254
-0.350,-0.599,-2.031,77.454,93.689,276.306
-0.389,-0.496,-2.096,82.275,81.421,294.861
-0.482,-0.350,-2.153,82.153,65.857,315.186
-0.567,-0.180,-2.185,83.618,50.354,333.984
-0.698,-0.049,-2.225,86.548,36.316,347.717
-0.819,0.135,-2.263,94.666,24.536,357.239
-0.902,0.316,-2.314,107.727,13.611,362.061
-0.984,0.473,-2.307,126.038,1.282,361.877
-1.064,0.610,-2.251,145.569,-12.512,360.474
2.417,3.466,-1.817,105.103,0.793,281.067
1.344,2.015,-3.752,39.795,49.744,81.238
-0.108,-0.086,-3.977,148.376,-17.456,72.266
-0.771,0.170,-2.226,300.171,-138.428,171.265
-1.022,0.607,-1.059,316.589,-171.692,232.483
-1.236,0.795,-1.188,223.694,-146.851,256.287
-1.220,1.034,-1.533,154.480,-131.531,255.249
-1.361,1.273,-1.328,152.283,-147.888,238.525
-1.636,1.562,-0.768,169.006,-170.044,215.332
-1.823,1.944,-0.181,160.645,-174.255,178.345
-1.873,2.220,0.021,122.192,-157.654,116.821
-1.807,2.230,-0.051,81.055,-133.667,36.072
-1.708,2.014,-0.121,65.369,-112.549,-50.903
-1.567,1.705,-0.012,75.562,-92.834,-133.179
-1.384,1.371,0.083,86.304,-69.336,-203.247
-1.160,1.005,0.006,84.595,-41.565,-255.249
-0.958,0.679,-0.144,80.078,-14.404,-286.987
-0.806,0.508,-0.341,78.430,7.202,-303.528
-0.617,0.322,-0.382,79.041,14.282,-317.261
-0.445,0.119,-0.419,74.280,9.827,-326.416
-0.261,-0.055,-0.367,68.115,-2.075,-327.271
-0.153,-0.220,-0.153,63.477,-18.127,-320.190
-0.101,-0.289,0.110,54.626,-32.227,-304.321
-0.055,-0.292,0.284,32.715,-38.879,-282.898
-0.025,-0.294,0.325,1.831,-37.720,-258.972
-0.041,-0.283,0.293,-24.048,-32.959,-235.596
-0.080,-0.249,0.332,-34.058,-27.405,-218.445
-0.122,-0.182,0.387,-37.109,-19.104,-208.435
-0.180,-0.199,0.376,-47.058,-6.409,-206.604
-0.230,-0.311,0.309,-60.120,8.728,-216.248
-0.223,-0.490,0.181,-67.688,24.963,-235.718
-0.157,-0.714,0.029,-66.223,40.161,-257.019
-0.009,-1.019,-0.136,-56.824,52.429,-271.484
0.202,-1.286,-0.251,-43.640,59.814,-270.752
0.400,-1.449,-0.241,-28.503,62.134,-250.488
0.531,-1.525,-0.221,-21.179,63.049,-212.524
0.589,-1.551,-0.251,-27.649,65.857,-164.246
0.588,-1.527,-0.307,-39.673,68.726,-114.624
0.525,-1.454,-0.377,-50.781,71.167,-70.374
0.447,-1.384,-0.438,-62.988,73.853,-36.133
0.369,-1.333,-0.523,-72.388,78.247,-13.428
0.308,-1.292,-0.646,-77.026,83.313,0.854
0.250,-1.250,-0.803,-78.918,88.562,11.780
0.222,-1.272,-1.022,-81.909,92.834,19.775
0.253,-1.337,-1.251,-83.130,93.933,25.330
0.297,-1.355,-1.393,-75.867,90.637,33.813
0.311,-1.353,-1.466,-64.758,85.938,48.157
0.279,-1.332,-1.498,-54.932,83.069,66.040
0.232,-1.297,-1.535,-47.852,82.520,83.862
0.200,-1.251,-1.617,-44.861,83.557,100.403
0.172,-1.185,-1.718,-43.030,83.069,114.380
0.122,-1.088,-1.845,-39.490,78.857,126.770
0.099,-1.017,-1.938,-35.034,69.885,138.428
0.068,-0.937,-1.974,-24.963,61.951,150.574
0.064,-0.825,-1.979,-10.559,57.007,165.039
0.050,-0.714,-2.010,2.258,56.213,181.274
0.005,-0.585,-2.067,13.977,57.007,197.510
-0.035,-0.425,-2.141,25.269,55.908,213.440
-0.094,-0.240,-2.198,37.415,50.720,226.624
-0.143,-0.057,-2.224,50.842,40.833,237.000
-0.202,0.101,-2.244,64.941,28.564,245.728
-0.260,0.283,-2.234,77.393,15.869,254.761
-0.356,0.464,-2.226,85.876,3.296,265.442
-0.455,0.646,-2.221,89.050,-10.132,277.100
-0.564,0.831,-2.228,89.294,-27.039,289.856
-0.676,0.992,-2.184,92.041,-47.363,299.927
-0.808,1.171,-2.089,98.145,-69.214,304.504
-0.926,1.345,-1.942,104.309,-89.172,301.697
-1.040,1.525,-1.765,107.666,-106.567,289.795
-1.150,1.694,-1.568,109.802,-121.704,267.395
-1.222,1.847,-1.370,112.366,-133.301,235.229
-1.252,1.927,-1.196,114.319,-140.747,194.214
-1.245,1.936,-1.029,119.080,-143.921,148.254
-1.253,1.925,-0.919,127.563,-141.541,102.905
-1.167,1.882,-0.603,140.381,-137.024,54.077
-1.069,1.762,-0.290,144.958,-133.301,2.869
-0.965,1.604,-0.085,136.536,-118.896,-41.443
-0.860,1.431,-0.003,125.732,-99.487,-81.055
-0.758,1.260,0.005,116.455,-79.529,-112.305
-0.678,1.107,-0.007,111.755,-61.890,-134.888
-0.612,0.968,0.012,110.046,-48.462,-151.550
-0.540,0.820,0.113,108.826,-38.635,-165.100
-0.469,0.673,0.264,105.347,-28.442,-176.086
-0.446,0.578,0.334,98.206,-13.672,-184.753
-0.429,0.535,0.324,88.989,0.610,-196.411
-0.371,0.447,0.359,76.233,7.385,-210.876
-0.354,0.338,0.338,55.542,13.062,-219.482
-0.337,0.227,0.304,34.363,14.465,-224.121
-0.315,0.126,0.279,14.832,12.146,-227.844
-0.295,0.066,0.271,-0.244,10.742,-230.774
-0.281,0.013,0.310,-12.756,13.306,-235.229
-0.246,-0.052,0.345,-24.963,21.606,-244.507
-0.195,-0.159,0.317,-36.377,35.034,-257.996
-0.157,-0.316,0.234,-44.067,50.842,-272.522

0.584,0.589,-1.431,129.395,35.217,224.487
0.359,1.122,-1.305,81.848,-2.441,209.900
0.330,1.139,-1.344,58.167,-32.654,183.350
0.353,1.117,-1.314,45.471,-60.791,156.982
0.319,1.106,-1.239,44.800,-83.984,138.062
0.304,1.109,-1.231,43.518,-100.098,124.634
0.245,1.176,-1.160,46.326,-114.746,114.990
0.168,1.351,-1.069,55.054,-126.709,105.347
0.059,1.455,-0.983,59.082,-135.193,89.966
-0.021,1.542,-0.892,56.335,-143.433,70.129
-0.098,1.570,-0.827,48.645,-151.672,49.500
-0.154,1.622,-0.757,40.894,-158.691,30.151
-0.227,1.672,-0.665,37.048,-164.001,9.399
-0.327,1.656,-0.570,39.307,-165.955,-13.306
-0.403,1.628,-0.431,48.889,-165.222,-37.537
-0.470,1.628,-0.252,63.843,-160.156,-64.575
-0.442,1.636,-0.027,78.125,-148.743,-95.520
-0.554,1.552,0.090,82.642,-129.028,-130.005
-0.519,1.425,0.160,80.444,-107.849,-164.368
-0.504,1.317,0.231,77.881,-85.693,-195.435
-0.512,1.213,0.300,71.350,-62.927,-222.778
-0.512,1.101,0.334,58.472,-41.321,-248.047
-0.515,0.991,0.338,41.565,-21.606,-273.315
-0.501,0.838,0.310,21.484,-5.737,-300.049
-0.492,0.645,0.293,0.732,5.493,-326.172
-0.474,0.440,0.368,-17.212,13.184,-348.755
-0.459,0.239,0.482,-35.400,22.156,-366.882
-0.441,0.048,0.523,-53.284,36.804,-380.188
-0.427,-0.143,0.485,-69.824,57.678,-386.719
-0.419,-0.342,0.362,-79.773,82.092,-386.780
-0.390,-0.546,0.205,-82.092,105.713,-380.859
-0.341,-0.669,0.087,-75.317,125.305,-370.789
-0.317,-0.743,0.062,-60.608,141.296,-358.765
-0.319,-0.880,0.154,-41.687,156.189,-347.412
-0.275,-1.035,0.209,-24.719,175.476,-332.764
-0.194,-1.100,0.191,-17.883,200.500,-310.669
-0.174,-1.161,0.061,-24.353,225.464,-281.677
-0.182,-1.249,-0.126,-33.081,240.845,-249.573
-0.149,-1.330,-0.264,-33.020,243.469,-216.736
-0.137,-1.335,-0.300,-28.076,238.586,-186.768
-0.166,-1.322,-0.330,-26.306,233.032,-161.682
-0.197,-1.333,-0.389,-33.813,228.577,-141.479
-0.206,-1.413,-0.503,-47.729,223.450,-127.625
-0.170,-1.533,-0.622,-62.073,215.210,-119.690
-0.109,-1.661,-0.741,-71.350,205.811,-113.464
0.013,-1.866,-0.846,-76.233,196.350,-105.774
0.180,-2.050,-0.972,-72.815,188.721,-91.125
0.296,-2.164,-1.100,-61.279,184.326,-63.904
0.365,-2.184,-1.198,-46.936,181.946,-26.184
0.353,-2.154,-1.259,-29.968,179.871,14.465
0.316,-2.075,-1.281,-12.451,178.223,51.331
0.275,-1.946,-1.307,7.202,177.979,80.566
0.251,-1.843,-1.392,23.132,180.786,100.647
0.248,-1.736,-1.520,39.185,182.373,115.173
0.246,-1.653,-1.637,55.786,178.406,128.784
0.250,-1.551,-1.704,71.533,169.739,145.752
0.261,-1.415,-1.773,85.388,160.095,164.978
0.258,-1.294,-1.819,96.008,151.184,184.204
0.251,-1.150,-1.872,105.225,141.418,203.430
0.240,-1.005,-2.000,108.398,130.859,225.098
0.203,-0.848,-2.158,104.309,116.455,249.084
0.167,-0.688,-2.305,99.792,96.008,275.146
0.094,-0.503,-2.412,93.506,70.618,301.392
-0.034,-0.304,-2.491,84.778,41.870,327.576
-0.147,-0.075,-2.536,77.026,11.841,349.731
-0.277,0.118,-2.556,76.111,-15.381,364.319
-0.404,0.323,-2.543,85.510,-37.842,371.948
-0.504,0.468,-2.475,106.567,-57.861,374.207
-0.589,0.580,-2.338,131.165,-76.904,372.498
-0.705,0.715,-2.172,155.273,-93.994,371.094
-0.888,0.894,-1.964,171.692,-112.549,371.216
-1.097,1.095,-1.744,177.979,-135.864,367.859
-1.290,1.310,-1.589,172.913,-164.001,355.591
-1.411,1.478,-1.404,160.034,-197.815,332.153
-1.543,1.610,-1.251,146.729,-229.065,300.842
-1.592,1.703,-1.040,139.648,-256.042,262.268
-1.603,1.793,-0.791,137.878,-274.780,216.125
-1.574,1.843,-0.550,137.512,-279.419,161.316
-1.518,1.807,-0.336,139.771,-271.240,99.915
-1.439,1.704,-0.107,149.109,-253.784,33.325
-1.365,1.548,0.127,164.307,-226.074,-32.959
-1.275,1.396,0.372,177.429,-188.721,-94.604
-1.174,1.262,0.544,177.185,-146.057,-148.926
-1.055,1.127,0.613,163.391,-104.736,-197.571
-0.974,0.958,0.610,144.592,-69.458,-239.990
-0.954,0.833,0.575,126.099,-41.626,-277.344
-0.890,0.657,0.609,108.154,-18.799,-317.200
-0.857,0.398,0.569,83.374,1.526,-358.154
-0.818,0.094,0.434,52.307,18.188,-394.592
-0.738,-0.274,0.269,27.222,29.358,-425.598
-0.605,-0.651,0.114,9.888,35.339,-447.815
-0.451,-0.961,0.042,-0.671,36.987,-458.313
-0.308,-1.162,0.048,-6.470,36.438,-456.970
-0.203,-1.311,0.054,-12.878,37.231,-445.496
-0.089,-1.512,0.013,-22.156,41.016,-427.979
0.094,-1.748,-0.016,-32.227,46.936,-406.250
0.307,-1.954,-0.024,-39.001,54.016,-380.249
0.506,-2.137,-0.046,-43.213,61.707,-347.168
0.672,-2.284,-0.029,-44.678,68.787,-303.589
0.775,-2.348,0.009,-38.513,77.759,-251.526
0.809,-2.320,0.054,-31.372,91.614,-194.153
0.775,-2.236,0.045,-25.635,111.389,-138.123
0.689,-2.109,-0.005,-19.653,134.094,-91.370
0.604,-1.970,-0.078,-13.062,156.067,-55.969
0.502,-1.888,-0.143,-5.310,176.086,-30.762
0.539,-1.814,-0.211,2.258,193.054,-13.916
0.568,-1.868,-0.331,1.709,208.069,0.488
0.582,-1.896,-0.536,-3.418,219.788,22.705
0.604,-1.894,-0.749,-6.165,221.130,51.392
0.596,-1.877,-0.884,-8.545,212.463,83.008
0.552,-1.827,-0.942,-9.094,200.684,115.845
0.505,-1.767,-0.999,-12.695,193.115,147.827
0.451,-1.698,-1.134,-16.418,194.519,176.086
0.394,-1.609,-1.350,-20.325,198.425,200.623
0.345,-1.501,-1.643,-20.447,199.402,222.351
0.301,-1.360,-1.928,-14.099,192.810,244.751
0.235,-1.185,-2.166,-4.700,178.711,268.188
0.170,-1.011,-2.399,3.601,157.898,293.457
0.101,-0.872,-2.638,10.620,132.019,320.312
-0.020,-0.689,-2.808,19.775,102.112,349.426
-0.212,-0.413,-2.873,32.837,71.106,379.395
-0.416,-0.072,-2.895,48.218,42.847,404.175
-0.570,0.266,-2.894,66.833,18.921,414.917
-0.678,0.526,-2.831,90.637,-1.709,410.034
-0.765,0.797,-2.678,119.141,-19.104,395.264
-0.846,1.057,-2.463,145.996,-34.607,373.474
-0.951,1.302,-2.282,168.030,-48.767,346.069
-0.958,1.464,-1.981,182.617,-68.237,311.401
-1.022,1.534,-1.730,187.256,-89.783,272.034
-1.060,1.589,-1.506,183.838,-106.750,234.924
-1.063,1.626,-1.277,179.382,-125.916,198.853
-1.108,1.697,-1.137,173.523,-145.508,161.682
-1.038,1.613,-0.895,167.175,-170.471,118.652
-1.011,1.534,-0.733,159.424,-184.265,81.787
-0.978,1.443,-0.546,159.851,-191.345,42.725
-0.946,1.347,-0.323,165.955,-191.589,1.770
-0.923,1.243,-0.116,170.227,-183.838,-36.987
-0.905,1.159,0.054,169.678,-169.800,-73.059
-0.879,1.090,0.195,166.321,-152.405,-107.544
-0.850,1.010,0.357,160.828,-133.301,-141.907
-0.821,0.931,0.519,150.879,-112.183,-177.307
-0.782,0.857,0.602,130.737,-88.318,-213.562
-0.738,0.750,0.583,103.760,-63.477,-250.549
-0.690,0.627,0.514,78.308,-40.894,-286.804
-0.662,0.497,0.522,58.899,-22.278,-322.876
-0.675,0.345,0.575,40.039,-4.822,-359.375
-0.700,0.142,0.600,14.343,13.794,-396.179
-0.714,-0.141,0.519,-14.526,32.776,-431.763
-0.701,-0.492,0.370,-41.016,48.889,-463.074

1.119,0.112,-0.009,-56.396,-43.091,-112.183
1.088,0.091,-0.040,-74.829,-54.932,-98.816
1.053,0.141,-0.171,-77.698,-60.242,-88.013
1.002,0.125,-0.276,-71.045,-60.486,-80.383
0.959,0.128,-0.368,-54.810,-61.523,-75.256
0.913,0.103,-0.441,-34.851,-66.223,-71.655
0.899,0.047,-0.462,-14.221,-76.111,-69.153
0.903,-0.047,-0.427,3.845,-90.393,-66.528
0.942,-0.151,-0.312,18.188,-107.178,-61.951
0.968,-0.270,-0.223,27.710,-120.972,-53.833
0.982,-0.367,-0.134,31.921,-131.897,-41.199
0.977,-0.458,-0.043,35.706,-141.479,-24.658
0.963,-0.522,0.059,38.208,-149.536,-5.188
0.923,-0.567,0.145,38.269,-155.334,17.395
0.884,-0.599,0.254,36.560,-159.058,42.297
0.835,-0.644,0.356,32.410,-161.377,67.688
0.766,-0.676,0.449,26.550,-162.048,93.811
0.688,-0.668,0.538,20.691,-162.415,121.582
0.595,-0.646,0.576,13.855,-161.194,149.231
0.505,-0.608,0.592,10.132,-158.875,176.575
0.441,-0.564,0.686,13.916,-156.982,202.271
0.377,-0.510,0.897,21.851,-152.588,225.403
0.212,-0.480,0.935,28.503,-141.418,246.887
0.135,-0.438,1.129,39.978,-127.625,268.066
0.052,-0.355,1.296,54.321,-109.680,287.842
-0.059,-0.272,1.441,53.345,-88.074,304.321
-0.165,-0.128,1.553,46.570,-64.453,318.970
-0.266,0.039,1.638,30.151,-40.100,326.965
-0.356,0.208,1.648,0.183,-17.151,326.904
-0.397,0.365,1.594,-37.598,1.709,321.655
-0.439,0.496,1.522,-80.261,15.991,313.538
-0.475,0.639,1.445,-120.361,27.283,305.786
-0.528,0.760,1.388,-152.466,38.757,298.279
-0.581,0.889,1.347,-174.561,52.917,289.856
-0.646,1.009,1.352,-189.392,71.472,280.151
-0.722,1.136,1.360,-201.050,94.971,267.334
-0.787,1.216,1.306,-214.050,122.864,252.441
-0.922,1.386,1.312,-222.778,151.672,235.291
-0.951,1.509,1.205,-246.216,178.528,206.665
-1.032,1.536,1.049,-278.564,200.745,172.302
-1.077,1.566,0.865,-311.707,216.064,135.864
-1.104,1.576,0.666,-345.703,225.769,94.971
-1.109,1.531,0.420,-378.845,228.516,51.208
-1.094,1.481,0.157,-408.264,223.938,8.545
-1.040,1.416,-0.076,-425.964,213.867,-33.020
-1.006,1.355,-0.236,-428.589,202.209,-73.975
-0.994,1.314,-0.373,-419.983,193.237,-112.122
-0.983,1.289,-0.561,-407.104,189.148,-148.743
-0.953,1.252,-0.801,-390.808,187.744,-187.073
-0.913,1.188,-1.097,-368.774,184.265,-227.478
-0.845,1.026,-1.448,-341.675,174.683,-266.663
-0.704,0.881,-1.786,-302.063,157.166,-300.659
-0.551,0.760,-2.011,-250.244,135.315,-329.041
-0.418,0.624,-2.166,-192.993,112.976,-351.440
-0.312,0.482,-2.293,-139.587,90.942,-364.197
-0.213,0.379,-2.416,-91.003,67.810,-367.676
-0.058,0.271,-2.404,-51.270,38.696,-367.065
-0.010,0.124,-2.421,-23.560,14.282,-366.089
0.061,0.021,-2.322,-2.319,-14.954,-360.352
0.083,-0.077,-2.146,12.390,-48.279,-351.929
0.073,-0.156,-1.964,19.531,-78.613,-343.750
0.066,-0.234,-1.821,22.339,-103.027,-337.219
0.049,-0.308,-1.750,25.146,-122.375,-332.214
0.057,-0.410,-1.680,32.043,-139.893,-327.698
0.071,-0.491,-1.580,43.213,-159.058,-322.205
0.071,-0.586,-1.478,56.458,-178.345,-314.819
0.083,-0.653,-1.365,73.120,-196.838,-304.749
0.090,-0.703,-1.254,85.388,-215.515,-295.105
0.063,-0.776,-1.148,98.877,-232.788,-285.828
0.031,-0.807,-0.983,112.671,-251.526,-276.794
0.062,-0.931,-0.739,123.108,-269.348,-270.569
0.147,-1.074,-0.546,127.869,-279.907,-263.611
0.214,-1.174,-0.421,133.179,-281.921,-251.648
0.296,-1.260,-0.312,135.986,-279.480,-236.755
0.378,-1.362,-0.222,134.460,-275.696,-217.651
0.481,-1.431,-0.093,139.282,-271.667,-192.627
0.579,-1.474,0.049,144.104,-264.587,-164.429
0.642,-1.508,0.169,143.311,-254.211,-133.423
0.710,-1.550,0.260,132.935,-242.432,-101.379
0.732,-1.560,0.321,121.521,-230.835,-65.247
0.742,-1.542,0.367,111.877,-220.093,-29.907
0.758,-1.508,0.408,99.487,-212.524,2.380
0.741,-1.456,0.436,89.294,-206.970,34.302
0.715,-1.386,0.450,77.576,-204.590,65.613
0.705,-1.314,0.517,68.237,-204.224,95.032
0.657,-1.240,0.584,57.556,-203.735,123.047
0.578,-1.157,0.629,51.086,-200.989,149.841
0.482,-1.074,0.694,49.500,-198.792,176.270
0.370,-0.947,0.781,51.270,-194.763,201.294
0.262,-0.826,0.873,54.321,-188.538,224.121
0.183,-0.736,0.961,54.321,-181.458,243.042
0.132,-0.666,1.074,53.833,-173.096,257.202
0.102,-0.602,1.214,51.025,-164.368,267.578
0.097,-0.510,1.367,40.955,-153.748,274.353
0.104,-0.404,1.476,22.766,-140.137,279.114
0.124,-0.284,1.524,-4.578,-124.268,283.081
0.133,-0.135,1.536,-35.583,-108.032,288.086
0.141,0.029,1.492,-67.810,-91.064,295.776
0.134,0.182,1.370,-103.821,-76.233,305.542
0.144,0.294,1.225,-128.723,-64.697,318.298
0.032,0.457,1.187,-146.667,-58.350,334.045
-0.056,0.647,1.174,-155.396,-49.133,350.098
-0.172,0.796,1.194,-157.166,-32.593,363.159
-0.326,0.954,1.214,-158.447,-8.484,373.474
-0.505,1.186,1.272,-161.072,20.142,377.991
-0.705,1.507,1.289,-172.729,53.162,370.911
-0.852,1.808,1.238,-198.547,89.844,346.069
-0.965,1.941,1.097,-232.239,126.038,297.424
-0.963,1.979,0.927,-271.179,155.701,231.628
-0.917,1.928,0.711,-308.594,176.819,158.691
-0.866,1.859,0.413,-345.093,187.622,89.417
-0.773,1.749,0.054,-377.991,188.965,29.968
-0.660,1.623,-0.249,-394.836,181.030,-19.531
-0.562,1.524,-0.460,-393.494,168.884,-63.538
-0.502,1.423,-0.668,-379.883,159.180,-101.807
-0.468,1.364,-0.870,-356.018,155.273,-135.681
-0.451,1.343,-1.073,-320.862,158.813,-168.945
-0.418,1.292,-1.328,-280.884,166.748,-204.163
-0.393,1.232,-1.638,-239.929,172.485,-240.784
-0.283,1.093,-2.000,-192.749,170.715,-274.902
-0.061,0.903,-2.357,-139.893,153.381,-304.382
0.189,0.659,-2.555,-79.163,116.272,-325.562
0.370,0.449,-2.531,-19.897,62.256,-333.313
0.470,0.228,-2.338,23.193,2.258,-328.369
0.493,0.082,-2.075,46.204,-51.941,-316.895
0.446,-0.000,-1.846,51.025,-95.032,-305.237
0.388,-0.098,-1.675,47.852,-128.479,-297.302
0.341,-0.210,-1.569,46.997,-155.640,-294.922
0.276,-0.326,-1.501,50.598,-179.016,-295.410
0.235,-0.452,-1.369,67.078,-200.928,-296.082
0.257,-0.647,-1.151,91.553,-220.520,-296.631
0.338,-0.868,-0.964,121.033,-230.835,-293.152
0.457,-1.027,-0.825,147.827,-231.262,-281.250
0.557,-1.196,-0.688,165.649,-230.530,-261.108
0.650,-1.320,-0.522,179.932,-233.948,-232.239
0.710,-1.389,-0.334,187.622,-241.211,-196.106
0.765,-1.420,-0.137,189.331,-246.704,-156.250
0.805,-1.423,0.047,179.810,-249.573,-116.943
0.840,-1.401,0.240,170.227,-249.390,-76.477
0.820,-1.360,0.378,157.471,-245.361,-36.926
0.799,-1.288,0.501,138.855,-239.197,2.258
0.751,-1.163,0.569,122.314,-229.675,41.321
0.667,-1.035,0.587,103.088,-220.886,77.942
0.592,-0.906,0.654,91.248,-215.759,110.535
0.508,-0.786,0.722,75.439,-216.003,136.230
0.436,-0.700,0.862,65.979,-216.858,157.104
0.360,-0.608,0.979,52.490,-214.783,174.072
0.289,-0.534,1.052,36.072,-209.412,189.575
0.245,-0.455,1.141,19.653,-202.209,202.698

0.727,0.654,0.078,-14.465,-72.998,60.913
0.757,0.664,0.135,-2.808,-58.411,49.866
0.777,0.712,0.103,4.395,-45.776,36.072
0.808,0.671,0.073,-1.404,-35.828,23.865
0.885,0.647,0.061,-14.404,-34.607,15.320
0.919,0.620,0.061,-32.715,-39.307,9.216
0.930,0.630,0.023,-49.622,-40.222,6.042
0.907,0.675,-0.091,-60.181,-35.461,3.174
0.885,0.735,-0.254,-63.110,-28.992,-2.502
0.825,0.818,-0.415,-58.411,-25.513,-11.780
0.774,0.882,-0.525,-48.828,-27.222,-26.917
0.784,0.855,-0.601,-35.950,-33.020,-46.631
0.838,0.752,-0.628,-21.667,-41.992,-66.284
0.909,0.622,-0.584,-5.615,-53.040,-80.444
0.947,0.504,-0.526,6.531,-64.331,-88.074
0.969,0.424,-0.449,20.020,-73.242,-89.783
0.955,0.360,-0.381,27.039,-80.200,-89.294
0.970,0.272,-0.305,32.776,-83.618,-88.440
0.865,0.225,-0.358,35.583,-87.830,-88.013
0.842,0.131,-0.351,42.297,-91.919,-88.013
0.807,0.074,-0.331,47.058,-97.473,-88.196
0.770,-0.034,-0.308,51.636,-102.905,-87.341
0.739,-0.136,-0.279,62.988,-106.995,-84.412
0.756,-0.255,-0.229,72.388,-111.633,-80.505
0.772,-0.389,-0.179,85.876,-116.333,-72.937
0.756,-0.485,-0.099,101.990,-121.338,-61.951
0.760,-0.563,-0.022,116.882,-125.183,-47.729
0.755,-0.620,0.038,128.784,-129.028,-30.029
0.743,-0.681,0.100,133.850,-133.911,-12.085
0.747,-0.734,0.181,133.850,-141.418,7.141
0.756,-0.803,0.272,135.254,-149.048,28.503
0.747,-0.857,0.346,131.165,-157.776,49.622
0.728,-0.896,0.467,134.949,-168.457,72.083
0.677,-0.907,0.613,139.893,-179.077,95.764
0.613,-0.876,0.775,143.188,-187.805,122.131
0.548,-0.838,0.942,145.386,-191.284,149.414
0.484,-0.818,1.141,144.409,-190.125,176.208
0.402,-0.759,1.360,135.620,-182.983,201.477
0.329,-0.629,1.511,116.760,-170.410,223.022
0.258,-0.480,1.616,86.914,-155.457,238.403
0.211,-0.341,1.693,48.950,-141.174,248.779
0.177,-0.218,1.724,8.484,-127.625,256.531
0.104,-0.091,1.666,-37.354,-117.065,264.465
0.006,0.060,1.569,-84.717,-109.619,273.804
-0.103,0.261,1.467,-124.634,-103.149,282.410
-0.189,0.460,1.380,-152.832,-94.849,285.950
-0.248,0.615,1.345,-160.950,-81.177,281.982
-0.283,0.742,1.359,-149.902,-59.692,272.522
-0.296,0.847,1.419,-132.751,-30.823,260.803
-0.302,0.937,1.493,-118.103,3.601,250.183
-0.313,1.009,1.524,-113.525,41.321,241.394
-0.330,1.082,1.509,-120.972,76.660,231.934
-0.369,1.159,1.465,-137.085,106.384,220.520
-0.414,1.214,1.372,-161.865,130.249,205.872
-0.456,1.239,1.242,-194.702,149.231,186.951
-0.493,1.247,1.103,-231.384,163.696,165.161
-0.537,1.263,0.959,-269.775,174.988,141.724
-0.590,1.251,0.818,-303.894,186.890,115.540
-0.636,1.218,0.676,-329.834,201.050,86.487
-0.671,1.192,0.484,-355.591,215.210,55.054
-0.756,1.248,0.233,-372.131,228.333,21.484
-0.832,1.377,-0.024,-381.897,236.328,-15.625
-0.884,1.436,-0.234,-385.925,238.525,-62.073
-0.904,1.415,-0.417,-389.160,234.863,-118.347
-0.897,1.320,-0.589,-392.456,226.807,-178.223
-0.871,1.156,-0.768,-392.883,215.210,-236.206
-0.829,0.976,-0.978,-386.963,202.148,-288.147
-0.737,0.765,-1.236,-366.882,190.491,-333.740
-0.581,0.493,-1.564,-333.801,180.481,-369.507
-0.307,0.241,-1.881,-291.321,168.884,-390.808
-0.016,0.018,-2.192,-240.295,153.320,-397.278
0.243,-0.188,-2.437,-181.946,129.211,-389.160
0.412,-0.347,-2.580,-119.568,93.506,-367.187
0.576,-0.409,-2.443,-63.660,45.044,-336.853
0.539,-0.490,-2.314,-20.386,3.296,-309.875
0.522,-0.488,-2.149,11.963,-27.161,-288.391
0.485,-0.506,-2.014,34.424,-52.063,-271.545
0.461,-0.541,-1.913,45.471,-74.646,-258.911
0.436,-0.547,-1.830,49.438,-98.145,-246.094
0.386,-0.552,-1.767,48.706,-123.413,-233.826
0.303,-0.554,-1.715,49.805,-149.658,-224.976
0.215,-0.568,-1.662,54.626,-177.124,-219.482
0.129,-0.610,-1.569,62.622,-207.336,-218.506
0.051,-0.677,-1.405,78.613,-238.220,-220.764
0.101,-0.808,-1.054,92.896,-266.785,-225.830
0.251,-1.035,-0.772,108.704,-279.053,-226.440
0.413,-1.149,-0.646,122.009,-270.935,-211.182
0.527,-1.271,-0.557,131.592,-260.437,-189.880
0.610,-1.388,-0.452,142.151,-257.812,-166.016
0.679,-1.432,-0.310,156.189,-260.132,-136.414
0.704,-1.393,-0.203,164.062,-262.878,-103.149
0.732,-1.342,-0.053,163.208,-267.578,-72.693
0.730,-1.346,0.055,151.611,-270.203,-43.823
0.710,-1.299,0.157,141.785,-270.813,-10.498
0.667,-1.224,0.269,138.062,-271.423,23.315
0.611,-1.142,0.405,133.240,-271.118,54.565
0.577,-1.060,0.553,128.357,-267.822,82.581
0.502,-0.979,0.675,119.385,-262.329,107.788
0.428,-0.907,0.814,109.863,-257.568,131.409
0.382,-0.840,0.966,100.464,-251.770,154.785
0.348,-0.746,1.086,87.341,-243.103,176.147
0.297,-0.698,1.193,69.458,-230.164,193.970
0.256,-0.627,1.275,51.880,-213.257,207.092
0.232,-0.527,1.368,38.513,-195.618,215.027
0.218,-0.433,1.434,21.912,-177.185,218.689
0.219,-0.331,1.473,-0.183,-160.034,220.520
0.235,-0.235,1.478,-23.132,-143.799,222.168
0.262,-0.149,1.456,-49.011,-129.272,224.365
0.283,-0.073,1.426,-75.256,-116.577,227.905
0.286,-0.001,1.379,-100.525,-104.431,233.765
0.282,0.086,1.317,-122.070,-92.834,242.981
0.260,0.195,1.246,-135.193,-81.055,254.761
0.187,0.312,1.158,-140.869,-69.031,269.226
0.074,0.442,1.062,-143.860,-58.777,285.461
-0.063,0.605,1.010,-140.503,-50.476,302.673
-0.215,0.794,1.026,-132.812,-40.833,316.345
-0.341,0.974,1.088,-125.549,-25.818,321.472
-0.427,1.136,1.157,-124.817,-4.272,315.491
-0.501,1.267,1.164,-137.512,22.156,300.598
-0.555,1.368,1.060,-160.461,49.744,279.541
-0.580,1.455,0.897,-189.636,71.655,253.296
-0.596,1.536,0.739,-220.093,86.121,220.642
-0.619,1.618,0.567,-237.244,98.877,181.274
-0.640,1.674,0.233,-249.634,111.389,137.207
-0.580,1.755,-0.102,-247.986,121.765,89.844
-0.482,1.832,-0.265,-212.524,130.554,40.527
-0.382,1.835,-0.354,-167.358,141.541,-8.484
-0.266,1.764,-0.431,-126.648,157.776,-52.002
-0.144,1.684,-0.462,-92.834,176.453,-87.524
-0.027,1.596,-0.469,-69.946,193.359,-114.136
0.057,1.499,-0.469,-59.143,206.848,-132.996
0.098,1.419,-0.474,-64.087,216.003,-147.034
0.064,1.348,-0.561,-83.801,221.436,-158.386
-0.034,1.264,-0.934,-113.098,220.947,-170.288
-0.045,1.174,-1.474,-136.963,204.285,-186.707
0.057,1.081,-1.797,-131.653,165.100,-208.191
0.163,0.966,-1.816,-98.328,112.671,-232.178
0.260,0.903,-1.612,-59.998,61.768,-253.418
0.339,0.815,-1.342,-31.799,24.475,-270.508
0.402,0.684,-1.146,-18.860,4.333,-284.241
0.472,0.515,-1.092,-16.296,-2.319,-293.518
0.559,0.358,-1.130,-18.921,-5.005,-297.424
0.632,0.221,-1.176,-18.555,-12.573,-296.936
0.663,0.099,-1.232,-12.939,-27.954,-292.725
0.690,-0.013,-1.291,-5.554,-49.500,-284.851
0.704,-0.109,-1.307,5.920,-76.660,-274.231
0.726,-0.218,-1.256,26.184,-105.530,-263.062
0.759,-0.339,-1.122,53.711,-131.775,-250.977
0.767,-0.448,-0.937,81.604,-151.367,-237.000

0.481,0.875,0.305,-44.312,-91.187,48.950
0.503,0.884,0.609,-61.401,-98.938,44.922
0.497,0.900,0.654,-77.209,-91.553,41.565
0.466,0.875,0.629,-85.938,-73.181,39.673
0.437,0.861,0.550,-80.505,-49.133,37.781
0.433,0.844,0.468,-65.857,-26.428,36.194
0.457,0.875,0.537,-47.119,-8.179,36.438
0.481,0.909,0.634,-32.654,10.132,37.537
0.463,0.916,0.592,-31.982,28.687,39.856
0.409,0.981,0.559,-37.292,40.161,44.128
0.326,1.090,0.565,-50.781,43.396,45.837
0.210,1.242,0.606,-66.406,43.762,42.114
0.094,1.395,0.719,-87.891,46.692,28.625
-0.023,1.562,0.767,-120.605,56.030,5.676
-0.165,1.576,0.510,-160.156,73.608,-24.170
-0.158,1.582,0.147,-191.284,84.595,-60.730
-0.153,1.581,-0.096,-204.285,84.045,-102.295
-0.151,1.559,-0.210,-203.064,80.200,-146.240
-0.144,1.478,-0.270,-194.824,85.388,-190.308
-0.157,1.345,-0.391,-190.674,102.600,-233.398
-0.217,1.203,-0.631,-186.401,128.357,-276.550
-0.316,1.059,-0.955,-177.368,152.222,-320.923
-0.414,0.838,-1.468,-159.607,166.870,-365.601
-0.378,0.453,-2.104,-138.672,162.537,-408.752
-0.108,0.068,-2.635,-107.666,130.249,-445.984
0.244,-0.389,-2.861,-57.190,68.176,-474.060
0.438,-0.928,-2.770,19.165,-13.367,-482.483
0.529,-1.363,-2.409,108.215,-93.079,-461.670
0.636,-1.695,-2.086,180.908,-146.851,-421.814
0.686,-1.953,-1.951,228.149,-177.551,-377.869
0.657,-2.188,-1.842,264.893,-209.167,-331.421
0.642,-2.510,-1.630,291.138,-250.977,-285.095
0.633,-2.800,-1.313,318.359,-296.387,-235.291
0.693,-3.052,-0.884,333.374,-337.891,-179.260
0.768,-3.205,-0.383,338.379,-364.136,-116.333
0.861,-3.246,0.141,332.153,-370.239,-44.128
0.903,-3.259,0.455,300.049,-359.558,38.147
0.856,-3.106,0.594,245.178,-350.586,132.690
0.624,-2.861,0.694,180.298,-359.375,228.455
0.292,-2.563,0.831,113.586,-381.592,322.937
-0.058,-2.256,1.006,44.312,-403.259,416.870
-0.469,-1.946,1.395,-13.550,-413.391,505.432
-0.955,-1.548,1.847,-56.274,-398.132,585.937
-1.446,-1.065,2.330,-92.468,-351.562,652.466
-1.983,-0.358,2.701,-126.160,-277.466,697.632
-2.453,0.592,2.869,-167.725,-182.922,712.891
-2.657,1.620,2.898,-220.703,-84.778,682.861
-2.840,2.741,2.898,-286.133,2.930,600.098
-3.056,3.914,2.356,-374.329,84.839,472.473
-3.069,4.000,1.662,-456.543,143.921,297.791
-2.909,4.000,1.216,-499.939,170.593,81.360
-2.677,4.000,0.917,-501.587,192.932,-143.799
-2.517,3.739,0.047,-486.389,234.619,-336.548
-2.302,2.964,-1.386,-453.918,277.283,-472.717
-1.938,2.239,-2.723,-365.295,287.231,-561.462
-1.433,1.557,-3.530,-228.210,254.089,-622.192
-1.037,0.781,-3.687,-90.454,185.791,-660.583
-0.742,-0.139,-3.498,17.395,100.769,-682.068
-0.564,-1.094,-3.348,77.209,14.160,-685.913
-0.390,-1.995,-3.167,124.084,-70.251,-672.791
-0.155,-2.740,-2.763,180.969,-145.325,-639.282
0.116,-3.257,-2.301,239.075,-195.923,-579.041
0.445,-3.733,-1.784,273.926,-225.464,-497.864
1.022,-3.999,-1.216,279.785,-241.760,-402.710
1.562,-4.000,-0.871,250.427,-247.681,-295.593
1.888,-4.000,-0.588,209.290,-251.831,-175.415
1.887,-4.000,-0.400,161.011,-262.085,-39.429
1.548,-3.815,-0.422,104.431,-280.579,106.812
0.900,-3.279,-0.502,60.181,-314.453,248.718
0.188,-2.759,-0.362,41.687,-361.206,373.962
-0.485,-2.261,0.175,60.181,-402.710,482.178
-1.030,-1.716,0.991,83.679,-421.509,568.054
-1.414,-1.195,1.804,87.769,-404.724,625.305
-1.732,-0.693,2.438,59.875,-359.619,652.222
-2.028,-0.167,2.813,-1.221,-303.711,654.358
-2.298,0.462,3.141,-82.458,-259.094,636.902
-2.503,1.339,3.545,-169.373,-218.201,602.173
-2.499,2.128,3.770,-263.611,-144.531,539.734
-2.565,2.796,3.745,-347.046,-35.889,439.636
-2.750,3.507,3.479,-417.786,80.872,315.430
-2.833,3.839,2.782,-492.554,186.829,179.382
-2.813,3.844,1.964,-555.603,264.954,29.236
-2.823,3.586,1.182,-595.825,312.500,-129.761
-2.884,3.077,0.316,-627.869,340.820,-279.846
-2.976,2.427,-0.767,-641.052,356.812,-408.081
-2.900,1.692,-2.646,-618.835,351.685,-520.508
-2.232,0.954,-4.000,-521.118,295.349,-619.324
-1.523,0.022,-4.000,-339.783,186.279,-698.792
-1.059,-1.073,-4.000,-149.902,56.458,-743.225
-0.703,-2.073,-4.000,-3.540,-67.139,-741.638
-0.371,-2.870,-3.649,86.121,-169.556,-699.219
-0.071,-3.443,-3.180,136.047,-250.549,-624.023
0.165,-3.733,-2.638,175.964,-319.153,-536.682
0.479,-4.000,-2.103,208.008,-366.394,-450.500
0.734,-4.000,-1.608,234.375,-385.193,-357.544
1.072,-4.000,-1.036,259.827,-383.362,-262.024
1.193,-4.000,-0.650,254.822,-364.868,-154.968
1.126,-4.000,-0.461,237.000,-341.797,-25.513
0.884,-3.808,-0.286,220.947,-337.036,111.633
0.455,-3.329,-0.061,204.895,-353.699,238.281
-0.037,-2.856,0.284,190.796,-383.057,347.290
-0.478,-2.365,0.764,175.354,-413.391,438.232
-0.906,-1.987,1.336,160.828,-430.115,512.390
-1.208,-1.521,1.932,137.573,-427.002,569.641
-1.451,-1.063,2.350,94.604,-403.931,605.835
-1.746,-0.643,2.456,20.020,-370.117,620.300
-2.107,-0.138,2.322,-72.021,-344.727,622.925
-2.340,0.465,2.208,-171.265,-341.797,615.723
-2.413,0.968,2.226,-268.738,-347.534,591.309
-2.454,1.424,2.299,-349.731,-329.834,542.664
-2.510,1.970,2.363,-400.146,-271.179,473.633
-2.441,2.701,2.449,-407.654,-175.171,386.780
-2.429,3.281,2.250,-381.897,-46.936,278.503
-2.320,3.539,1.814,-337.524,91.125,151.855
-2.233,3.462,1.253,-287.292,210.205,16.113
-2.042,3.234,0.692,-255.920,294.678,-108.032
-1.856,2.907,0.280,-248.169,341.187,-209.106
-1.692,2.507,-0.037,-262.695,358.398,-285.828
-1.611,2.150,-0.365,-293.823,361.877,-343.994
-1.610,1.721,-0.735,-330.994,359.436,-394.470
-1.658,1.295,-1.446,-364.624,348.572,-443.176
-1.555,0.850,-2.381,-376.648,317.200,-490.479
-1.245,0.364,-3.147,-337.585,252.136,-534.363
-0.590,-0.044,-3.110,-262.512,152.161,-566.956
-0.180,-0.592,-2.989,-196.228,57.861,-587.097
0.164,-1.083,-2.701,-123.230,-29.724,-585.754
0.420,-1.451,-2.328,-46.265,-99.548,-555.908
0.660,-1.741,-2.077,12.634,-142.395,-499.390
0.802,-1.876,-1.935,62.500,-167.358,-425.598
0.812,-2.009,-1.778,105.713,-189.514,-353.821
0.924,-2.059,-1.520,143.860,-211.548,-288.513
1.003,-2.050,-1.247,182.068,-229.736,-228.088
1.060,-1.993,-0.982,210.815,-238.831,-172.546
1.095,-1.946,-0.763,222.534,-240.784,-118.164
1.117,-1.822,-0.524,233.093,-239.258,-60.608
1.077,-1.616,-0.280,236.084,-239.197,-3.967
1.015,-1.412,-0.028,226.685,-240.845,49.805
0.905,-1.210,0.182,205.383,-242.432,97.961
0.745,-1.001,0.359,176.514,-245.056,140.198
0.602,-0.739,0.518,152.283,-247.070,178.772
0.468,-0.472,0.688,125.305,-249.023,210.754
0.306,-0.197,0.815,96.680,-248.047,235.229
0.125,0.129,0.886,73.364,-243.774,250.244
-0.042,0.467,0.923,46.387,-241.699,253.174
-0.164,0.753,0.945,24.170,-241.455,244.019
-0.205,0.942,0.985,5.005,-242.798,221.680
-0.161,0.983,1.079,-4.639,-241.943,188.232
-0.067,0.944,1.235,-6.165,-235.413,150.879
-0.001,0.899,1.395,-0.732,-217.407,118.225

0.569,0.362,0.627,-81.177,-109.497,20.630
0.588,0.383,0.869,-106.873,-128.662,22.644
0.587,0.303,0.946,-104.614,-122.131,24.841
0.559,0.251,0.897,-88.196,-97.656,31.494
0.535,0.221,0.815,-49.988,-64.941,43.213
0.501,0.181,0.774,-7.446,-40.039,54.932
0.479,0.163,0.988,26.855,-30.273,66.284
0.414,0.137,1.409,48.096,-22.827,77.454
0.376,0.156,1.807,50.293,-2.747,88.013
0.291,0.198,1.911,29.602,28.381,98.145
0.219,0.247,1.871,-5.066,55.725,107.483
0.139,0.304,1.947,-40.588,71.960,113.647
0.055,0.364,2.099,-76.294,87.585,117.432
-0.115,0.441,2.118,-114.502,114.685,121.338
-0.288,0.584,1.992,-154.175,153.503,125.427
-0.481,0.687,1.839,-182.007,200.684,124.817
-0.620,0.918,1.708,-195.801,249.023,113.892
-0.787,1.155,1.463,-219.788,302.979,92.773
-0.955,1.365,1.060,-249.695,357.422,61.951
-1.117,1.572,0.565,-286.865,398.865,16.479
-1.248,1.777,0.001,-323.303,421.997,-46.570
-1.324,1.797,-0.371,-357.117,424.744,-129.578
-1.386,1.542,-0.674,-390.869,414.612,-225.220
-1.453,1.225,-1.352,-426.697,398.376,-316.162
-1.281,0.783,-2.404,-450.989,368.469,-393.738
-0.635,0.311,-3.428,-437.622,303.589,-453.857
0.084,-0.220,-3.994,-371.826,196.228,-486.084
0.491,-0.790,-4.000,-247.375,72.998,-481.445
0.821,-1.076,-3.932,-103.149,-22.034,-438.477
0.834,-1.201,-3.696,22.583,-88.135,-386.536
0.625,-1.317,-3.246,126.648,-147.034,-343.140
0.477,-1.466,-2.722,203.003,-203.064,-309.631
0.437,-1.543,-2.246,251.160,-246.887,-285.583
0.234,-1.810,-1.997,265.564,-278.442,-267.700
0.130,-2.099,-1.735,281.738,-310.730,-242.859
0.132,-2.268,-1.300,315.613,-345.154,-214.355
0.181,-2.400,-0.848,334.167,-371.155,-184.570
0.343,-2.567,-0.393,323.975,-388.306,-152.466
0.476,-2.707,0.067,299.866,-395.691,-106.628
0.591,-2.750,0.525,270.630,-393.677,-40.222
0.645,-2.662,0.843,229.248,-380.920,41.016
0.571,-2.485,1.076,183.289,-365.723,125.000
0.424,-2.258,1.283,133.606,-355.408,201.355
0.246,-1.998,1.504,86.914,-348.267,270.508
0.049,-1.701,1.736,42.419,-341.980,338.318
-0.120,-1.372,1.952,-4.639,-330.750,400.085
-0.354,-1.086,2.151,-47.485,-310.364,452.698
-0.570,-0.742,2.304,-95.520,-283.997,494.019
-0.866,-0.338,2.389,-149.170,-256.958,528.503
-1.183,0.116,2.437,-212.891,-229.492,555.847
-1.460,0.640,2.595,-271.118,-191.589,567.261
-1.734,1.328,2.840,-326.172,-132.324,550.049
-2.001,1.996,2.857,-387.024,-37.964,498.657
-2.150,2.579,2.572,-447.083,77.942,407.776
-2.318,2.997,1.944,-501.282,184.937,278.625
-2.429,3.173,1.114,-555.420,254.639,126.709
-2.451,3.066,0.197,-599.121,281.189,-30.701
-2.336,2.902,-0.873,-612.671,274.719,-185.547
-1.997,2.606,-2.131,-575.378,243.713,-330.017
-1.406,2.189,-3.100,-470.520,188.965,-452.576
-0.871,1.425,-3.539,-314.819,124.207,-537.415
-0.387,0.586,-3.585,-156.006,62.988,-572.571
-0.043,-0.121,-3.446,-38.208,4.517,-567.688
0.107,-0.658,-3.251,36.438,-55.420,-546.753
0.109,-1.210,-3.054,80.139,-120.300,-525.024
0.099,-1.762,-2.814,116.394,-187.744,-503.845
0.183,-2.179,-2.440,163.330,-245.850,-478.271
0.247,-2.647,-2.027,212.769,-283.936,-442.505
0.440,-3.021,-1.546,251.587,-303.650,-390.076
0.808,-3.301,-0.961,279.297,-309.814,-323.975
1.181,-3.472,-0.355,284.729,-303.711,-246.582
1.411,-3.553,0.037,268.188,-280.823,-155.151
1.461,-3.501,0.253,235.779,-256.287,-48.645
1.302,-3.299,0.370,209.351,-243.896,68.542
0.965,-2.942,0.538,181.580,-252.380,185.974
0.558,-2.469,0.835,158.630,-275.940,294.250
0.129,-2.029,1.228,131.653,-301.392,386.169
-0.246,-1.611,1.703,99.854,-313.904,458.740
-0.590,-1.207,2.171,72.021,-305.603,513.306
-0.938,-0.735,2.493,29.846,-282.654,553.467
-1.291,-0.231,2.682,-28.076,-255.127,579.773
-1.635,0.363,2.828,-101.318,-226.746,589.722
-1.925,1.080,3.044,-174.866,-188.721,575.073
-2.013,1.842,3.223,-249.634,-127.197,525.574
-2.100,2.510,3.227,-328.979,-37.292,440.247
-2.302,3.137,2.991,-405.884,63.660,328.064
-2.371,3.464,2.448,-481.689,155.518,197.876
-2.392,3.438,1.664,-545.105,224.426,51.453
-2.385,3.119,0.779,-587.341,263.306,-102.722
-2.348,2.712,-0.047,-601.929,276.794,-249.023
-2.219,2.227,-1.087,-592.041,275.024,-374.573
-1.965,1.677,-2.337,-547.241,256.226,-478.821
-1.429,0.926,-3.336,-446.716,212.097,-560.303
-0.739,0.078,-3.790,-315.308,141.418,-611.816
-0.238,-0.776,-3.829,-192.017,53.589,-630.920
0.131,-1.609,-3.647,-84.106,-40.894,-617.981
0.338,-2.107,-3.330,1.465,-131.775,-575.134
0.422,-2.540,-2.830,70.862,-210.449,-516.785
0.409,-2.792,-2.440,134.033,-267.822,-448.303
0.429,-2.992,-1.996,191.589,-306.396,-380.188
0.505,-3.258,-1.594,228.882,-332.336,-319.092
0.807,-3.335,-1.054,265.869,-345.459,-251.221
1.026,-3.432,-0.610,293.213,-341.858,-177.856
1.131,-3.417,-0.211,308.533,-324.707,-88.928
1.110,-3.226,0.072,309.753,-306.702,15.686
0.963,-2.925,0.281,292.786,-300.659,125.122
0.664,-2.553,0.525,265.686,-311.218,227.295
0.289,-2.190,0.806,230.530,-332.581,317.078
-0.065,-1.848,1.218,202.332,-354.797,393.372
-0.401,-1.490,1.729,182.922,-369.202,455.811
-0.762,-1.108,2.222,156.494,-366.150,502.686
-1.064,-0.643,2.513,104.797,-345.581,534.790
-1.369,-0.161,2.629,21.057,-319.397,550.903
-1.576,0.395,2.674,-70.251,-295.227,550.659
-1.657,0.832,2.658,-167.786,-269.104,529.724
-1.603,1.269,2.692,-253.845,-231.812,487.976
-1.623,1.655,2.753,-315.613,-171.082,429.321
-1.638,2.070,2.702,-366.638,-82.886,359.558
-1.684,2.397,2.440,-410.400,22.156,277.222
-1.749,2.605,1.980,-447.449,124.268,181.519
-1.755,2.564,1.351,-474.609,206.482,77.454
-1.692,2.362,0.658,-493.774,258.118,-23.254
-1.592,2.170,0.078,-499.878,278.809,-111.511
-1.463,1.965,-0.332,-489.502,277.588,-186.340
-1.343,1.736,-0.845,-470.703,268.250,-250.244
-1.147,1.447,-1.412,-441.162,252.197,-305.359
-0.933,1.173,-1.933,-380.127,228.027,-353.149
-0.680,0.930,-2.340,-294.434,195.190,-391.846
-0.466,0.637,-2.588,-196.838,157.471,-422.424
-0.240,0.342,-2.578,-103.821,116.821,-446.106
-0.019,0.007,-2.488,-30.701,73.792,-461.853
0.127,-0.298,-2.331,11.780,27.954,-466.492
0.275,-0.584,-2.203,27.893,-16.296,-460.388
0.428,-0.822,-2.012,42.236,-66.895,-443.420
0.583,-0.998,-1.738,52.917,-121.155,-414.429
0.710,-1.119,-1.392,58.838,-167.847,-368.286
0.777,-1.270,-1.118,71.899,-196.533,-314.880
0.883,-1.268,-0.891,97.351,-208.008,-266.602
0.983,-1.188,-0.601,119.324,-204.590,-228.333
1.020,-1.215,-0.502,123.108,-186.646,-191.284
1.046,-1.186,-0.437,129.761,-164.978,-145.020
1.061,-1.070,-0.328,143.311,-152.100,-98.999
1.054,-0.957,-0.229,154.236,-143.555,-57.922
1.034,-0.842,-0.155,153.137,-137.573,-24.048
1.008,-0.733,-0.076,148.315,-135.803,2.747
0.985,-0.639,0.015,142.273,-137.268,25.024
0.938,-0.544,0.104,129.700,-140.869,43.335
0.878,-0.452,0.175,114.685,-145.203,60.486
0.835,-0.353,0.262,104.675,-147.705,76.050

0.794,0.123,0.448,1.709,36.987,-89.172
0.855,0.025,0.549,-8.667,33.325,-95.642
0.898,-0.034,0.592,-16.846,33.997,-100.891
0.904,-0.177,0.649,-22.217,42.786,-100.891
0.918,-0.291,0.703,-21.667,59.143,-94.666
0.906,-0.360,0.704,-18.921,80.750,-84.229
0.848,-0.368,0.664,-16.357,102.112,-71.838
0.784,-0.359,0.624,-19.592,117.859,-60.547
0.746,-0.380,0.607,-33.203,126.404,-53.467
0.727,-0.445,0.601,-53.162,132.324,-49.683
0.717,-0.521,0.558,-72.388,140.747,-46.021
0.718,-0.619,0.524,-88.196,152.222,-40.833
0.687,-0.737,0.513,-100.342,166.809,-33.386
0.636,-0.867,0.450,-111.023,185.608,-23.437
0.559,-0.987,0.344,-121.094,205.017,-10.864
0.495,-1.064,0.199,-130.066,221.619,2.991
0.493,-1.186,0.024,-146.118,232.178,18.799
0.656,-1.337,-0.107,-179.504,232.178,36.926
0.802,-1.492,-0.301,-215.820,223.389,56.274
0.879,-1.697,-0.430,-245.728,206.909,80.383
1.094,-1.763,-0.531,-262.329,196.472,116.333
1.225,-1.887,-0.713,-280.701,194.031,159.302
1.276,-1.935,-0.881,-284.302,193.848,209.351
1.213,-1.860,-1.104,-269.836,194.519,267.334
1.031,-1.699,-1.339,-245.300,197.327,332.825
0.798,-1.517,-1.644,-217.712,200.073,403.198
0.592,-1.305,-1.947,-186.157,194.580,471.619
0.304,-1.121,-2.263,-147.461,172.363,535.461
-0.042,-0.838,-2.335,-86.914,128.723,593.323
-0.351,-0.544,-2.159,-17.944,69.580,639.954
-0.590,-0.255,-1.888,38.879,16.479,670.898
-0.748,0.012,-1.626,78.979,-18.250,686.707
-0.960,0.134,-1.475,102.051,-39.246,688.721
-1.131,0.367,-1.401,112.488,-55.847,681.519
-1.251,0.630,-1.307,117.126,-71.533,664.124
-1.364,0.931,-1.246,116.455,-87.769,634.766
-1.454,1.182,-1.239,99.365,-106.445,592.712
-1.509,1.403,-1.250,84.656,-127.502,539.856
-1.547,1.631,-1.182,81.299,-155.029,478.638
-1.584,1.878,-1.011,98.206,-185.730,406.677
-1.589,2.083,-0.807,119.934,-213.928,327.209
-1.558,2.227,-0.599,129.211,-233.276,242.676
-1.538,2.299,-0.415,131.897,-240.662,158.997
-1.484,2.290,-0.264,124.207,-238.159,79.773
-1.420,2.211,-0.168,118.591,-228.333,8.362
-1.323,2.058,-0.114,116.089,-216.431,-53.589
-1.231,1.849,-0.055,127.808,-202.881,-104.004
-1.136,1.648,0.023,143.982,-190.369,-140.930
-1.040,1.456,0.110,158.691,-177.734,-165.405
-0.975,1.322,0.196,167.114,-165.588,-181.824
-0.915,1.227,0.283,170.593,-153.748,-195.862
-0.856,1.164,0.392,173.584,-140.747,-211.914
-0.809,1.113,0.512,178.772,-125.000,-230.896
-0.761,1.058,0.642,183.777,-105.103,-253.113
-0.721,0.996,0.743,185.120,-80.444,-278.381
-0.673,0.933,0.848,188.232,-51.514,-304.565
-0.637,0.898,0.978,192.932,-18.555,-332.520
-0.594,0.829,1.099,200.867,20.447,-362.976
-0.583,0.673,1.167,207.764,69.702,-395.569
-0.585,0.436,1.105,206.299,124.146,-428.101
-0.591,0.151,0.963,203.064,176.880,-456.787
-0.585,-0.135,0.785,199.219,222.290,-477.356
-0.586,-0.436,0.701,195.557,259.033,-489.685
-0.536,-0.781,0.746,187.561,292.053,-492.004
-0.266,-1.142,0.998,151.062,325.562,-483.826
0.150,-1.389,1.113,82.092,361.328,-470.337
0.321,-1.602,1.024,1.221,395.447,-454.041
0.384,-1.786,0.731,-75.012,414.551,-429.260
0.539,-1.924,0.363,-126.282,415.039,-388.550
0.644,-2.032,0.031,-154.236,403.687,-326.172
0.804,-2.166,-0.202,-169.800,388.306,-247.803
1.168,-2.337,-0.501,-189.331,371.094,-160.339
1.569,-2.532,-0.852,-200.500,340.454,-76.477
1.741,-2.693,-1.174,-188.110,295.654,6.775
1.842,-2.693,-1.316,-159.241,247.070,102.783
1.820,-2.634,-1.457,-124.634,209.045,211.487
1.616,-2.665,-1.557,-82.703,181.030,323.425
1.223,-2.591,-1.540,-23.804,156.433,442.017
0.672,-2.377,-1.481,39.368,139.771,563.904
-0.003,-2.054,-1.449,90.088,131.836,674.561
-0.594,-1.772,-1.473,130.676,125.549,760.437
-1.052,-1.395,-1.505,166.626,113.464,822.144
-1.450,-0.783,-1.439,196.899,89.966,859.192
-1.780,-0.017,-1.417,203.491,54.688,868.774
-1.975,0.750,-1.441,174.011,7.324,847.229
-2.112,1.293,-1.586,115.723,-46.448,790.100
-2.148,1.670,-1.843,59.143,-106.689,704.712
-2.077,2.026,-1.964,37.781,-173.950,599.609
-2.027,2.369,-1.869,56.030,-242.065,482.727
-1.952,2.635,-1.601,87.402,-300.354,361.023
-2.052,2.565,-1.284,113.647,-341.003,243.164
-1.933,2.445,-0.974,129.333,-360.718,140.381
-1.737,2.141,-0.770,136.719,-358.704,52.002
-1.534,1.864,-0.585,145.935,-337.341,-19.470
-1.359,1.651,-0.438,156.189,-300.476,-74.341
-1.188,1.473,-0.327,162.109,-254.211,-114.014
-1.047,1.331,-0.244,163.330,-205.566,-141.541
-0.933,1.204,-0.178,165.039,-160.645,-161.560
-0.835,1.109,-0.112,171.265,-126.038,-177.673
-0.762,1.038,-0.016,179.382,-103.638,-192.627
-0.697,1.017,0.110,188.904,-92.468,-206.787
-0.640,1.013,0.256,198.792,-88.257,-221.436
-0.561,1.018,0.428,206.787,-87.219,-237.915
-0.502,0.990,0.596,207.520,-85.144,-255.249
-0.428,0.941,0.782,206.909,-78.857,-273.926
-0.387,0.859,0.969,203.674,-63.477,-295.349
-0.361,0.776,1.129,195.923,-38.086,-318.604
-0.337,0.676,1.218,181.458,-4.883,-344.238
-0.328,0.510,1.228,168.091,33.447,-372.620
-0.330,0.297,1.192,160.767,73.303,-401.794
-0.348,0.045,1.140,159.424,113.220,-429.321
-0.369,-0.221,1.095,163.818,155.762,-449.829
-0.367,-0.469,1.104,163.269,201.904,-460.693
-0.292,-0.656,1.203,155.640,254.028,-462.891
-0.217,-0.868,1.260,136.292,315.002,-457.825
-0.150,-1.040,1.185,88.806,378.357,-445.007
-0.098,-1.126,0.917,22.278,434.387,-425.110
-0.079,-1.282,0.547,-39.856,471.985,-400.879
-0.015,-1.405,0.128,-86.365,487.122,-369.568
0.181,-1.614,-0.263,-130.920,480.713,-331.970
0.675,-1.898,-0.516,-199.402,451.294,-289.551
1.172,-2.172,-0.701,-245.667,397.034,-254.456
1.420,-2.487,-0.823,-233.765,323.486,-215.576
1.606,-2.492,-0.661,-204.407,254.700,-135.315
1.655,-2.474,-0.724,-214.905,224.426,-17.944
1.569,-2.565,-1.038,-236.328,229.736,96.680
1.454,-2.482,-1.337,-238.586,235.962,195.251
1.192,-2.305,-1.511,-224.243,234.741,282.593
0.782,-2.135,-1.672,-194.214,236.328,365.356
0.385,-1.897,-1.954,-155.701,240.112,442.505
0.103,-1.500,-2.365,-107.605,233.582,505.554
-0.031,-1.165,-2.791,-55.176,203.918,545.654
-0.083,-0.961,-3.029,7.751,144.958,562.988
-0.185,-0.723,-2.797,91.248,65.002,566.345
-0.425,-0.421,-2.256,152.954,-12.939,566.467
-0.687,0.028,-1.839,148.804,-71.289,569.214
-0.857,0.524,-1.791,78.796,-113.708,566.284
-0.925,0.890,-1.988,4.700,-154.236,546.326
-0.926,1.103,-2.062,-24.109,-207.153,507.996
-0.908,1.247,-1.819,7.751,-264.404,456.360
-0.916,1.326,-1.423,61.340,-311.707,397.522
-0.874,1.372,-1.067,100.464,-336.243,338.989
-0.802,1.401,-0.768,125.732,-336.792,284.546
-0.728,1.440,-0.504,142.700,-318.604,235.901
-0.661,1.470,-0.275,151.001,-286.316,190.063
-0.592,1.479,-0.107,154.297,-243.713,146.362
-0.525,1.460,-0.013,152.283,-196.350,104.675
-0.456,1.379,0.007,149.292,-150.269,63.538
-0.385,1.285,0.015,150.757,-111.206,25.818

1.319,-0.259,-0.097,-24.780,21.790,50.537
1.237,-0.104,-0.137,-15.808,17.395,62.622
1.110,0.181,-0.348,2.563,11.475,64.392
1.041,0.312,-0.361,21.179,5.066,56.519
1.078,0.214,-0.330,28.442,2.441,45.227
1.031,0.130,-0.322,26.611,6.226,39.368
1.039,0.090,-0.351,18.677,14.526,37.231
1.020,0.063,-0.409,7.446,22.583,35.889
0.991,0.016,-0.419,-6.042,27.222,34.180
0.935,-0.080,-0.410,-20.508,31.860,34.546
0.883,-0.189,-0.532,-40.283,40.466,39.673
0.883,-0.276,-0.709,-66.711,47.058,50.659
0.894,-0.329,-0.804,-90.881,45.532,63.477
0.933,-0.333,-0.760,-107.422,36.438,75.439
0.835,-0.446,-0.848,-140.320,40.466,93.445
0.758,-0.448,-1.057,-187.378,51.208,117.981
0.674,-0.322,-1.298,-255.554,61.584,148.926
0.646,-0.136,-1.455,-333.374,65.430,179.199
0.568,0.019,-1.497,-395.935,59.143,200.500
0.479,0.060,-1.565,-430.847,42.786,216.858
0.454,0.360,-1.813,-428.467,15.686,233.765
0.536,0.665,-1.823,-396.362,-35.767,249.512
0.570,1.066,-1.642,-345.398,-101.440,258.606
0.602,1.388,-1.274,-291.260,-164.673,250.488
0.656,1.648,-0.968,-255.066,-205.139,225.281
0.687,1.799,-0.822,-239.868,-215.942,187.561
0.712,1.878,-0.777,-229.980,-211.182,144.653
0.731,1.965,-0.695,-211.914,-207.520,102.295
0.786,2.078,-0.534,-186.646,-209.106,58.960
0.790,2.100,-0.406,-154.785,-211.121,12.512
0.765,1.968,-0.342,-115.784,-211.792,-36.499
0.669,1.796,-0.297,-75.623,-212.952,-83.252
0.495,1.638,-0.251,-41.260,-211.853,-121.094
0.364,1.468,-0.203,-13.916,-206.482,-150.391
0.321,1.342,-0.146,10.803,-197.754,-171.875
0.341,1.259,-0.082,34.180,-188.416,-186.462
0.378,1.177,-0.045,56.335,-180.603,-198.669
0.411,1.102,-0.036,78.979,-176.270,-212.769
0.435,1.027,-0.023,102.539,-176.819,-230.286
0.446,0.972,0.042,125.305,-180.298,-251.770
0.429,0.889,0.142,147.888,-182.068,-277.039
0.372,0.818,0.259,169.861,-179.260,-303.833
0.287,0.725,0.379,192.017,-171.265,-330.139
0.194,0.559,0.462,212.952,-157.959,-356.445
0.073,0.328,0.534,234.924,-140.015,-382.019
-0.069,0.074,0.565,257.385,-117.310,-404.053
-0.201,-0.159,0.570,279.419,-89.783,-416.931
-0.313,-0.377,0.618,296.204,-59.265,-416.565
-0.426,-0.611,0.638,304.077,-24.902,-403.748
-0.532,-0.885,0.569,309.570,13.245,-380.859
-0.620,-1.236,0.443,307.190,50.781,-351.562
-0.685,-1.591,0.338,305.359,85.022,-318.237
-0.700,-1.922,0.222,295.593,113.770,-284.058
-0.695,-2.315,0.117,276.733,141.663,-247.742
-0.723,-2.778,-0.164,253.113,172.546,-201.294
-0.716,-3.251,-0.491,208.740,197.388,-136.963
-0.697,-3.534,-0.758,147.888,210.205,-53.345
-0.696,-3.571,-0.903,76.721,214.050,34.424
-0.666,-3.467,-0.926,2.075,220.581,116.455
-0.597,-3.252,-0.901,-68.054,237.305,186.890
-0.525,-2.977,-0.976,-120.972,261.780,243.896
-0.480,-2.675,-1.192,-151.855,283.630,289.612
-0.453,-2.348,-1.441,-171.021,291.687,329.224
-0.441,-1.980,-1.704,-185.120,283.142,364.929
-0.288,-1.548,-1.726,-192.200,256.897,396.240
-0.193,-1.023,-1.852,-182.617,224.976,418.091
-0.042,-0.538,-1.840,-169.434,182.922,425.781
0.090,-0.126,-1.722,-141.663,134.583,420.471
0.191,0.240,-1.639,-108.887,90.637,405.212
0.316,0.551,-1.557,-82.764,55.237,382.812
0.366,0.885,-1.558,-66.345,30.945,356.567
0.548,1.070,-1.454,-64.697,11.963,320.251
0.639,1.195,-1.417,-62.988,-6.409,272.156
0.714,1.216,-1.454,-60.547,-20.081,225.220
0.755,1.140,-1.466,-57.434,-36.987,183.289
0.692,1.113,-1.450,-51.208,-57.678,150.818
0.646,1.072,-1.403,-36.804,-82.642,127.869
0.632,1.195,-1.266,-17.273,-108.826,112.305
0.681,1.386,-1.067,1.953,-131.897,98.450
0.758,1.594,-0.797,19.104,-147.827,80.933
0.869,1.783,-0.569,39.978,-153.381,53.040
0.987,1.977,-0.445,66.711,-150.818,12.512
1.069,2.008,-0.417,101.196,-149.414,-43.762
1.086,1.841,-0.412,137.146,-155.334,-111.450
1.027,1.583,-0.336,168.579,-166.199,-177.185
0.858,1.323,-0.250,194.885,-176.147,-235.413
0.650,1.056,-0.174,215.088,-182.190,-281.982
0.453,0.786,-0.077,229.736,-185.181,-315.674
0.292,0.539,0.085,243.530,-184.875,-335.999
0.163,0.289,0.286,259.277,-178.223,-345.398
0.051,0.052,0.479,279.602,-162.842,-344.727
-0.043,-0.203,0.594,306.702,-139.648,-333.862
-0.105,-0.492,0.643,341.064,-112.244,-312.744
-0.155,-0.780,0.638,380.859,-84.106,-280.823
-0.214,-1.028,0.540,423.523,-55.847,-240.662
-0.265,-1.374,0.407,465.515,-29.297,-195.923
-0.352,-1.853,0.246,499.268,-0.305,-146.667
-0.418,-2.318,0.104,511.536,36.926,-82.031
-0.449,-2.590,-0.158,495.789,83.679,3.479
-0.478,-2.691,-0.579,461.731,132.507,100.891
-0.440,-2.676,-1.021,401.917,176.270,192.566
-0.324,-2.504,-1.482,321.228,214.355,266.602
-0.278,-2.225,-1.906,222.351,244.934,317.932
-0.220,-1.920,-2.224,109.558,268.616,351.868
-0.130,-1.662,-2.518,-0.122,271.423,370.605
0.137,-1.261,-2.605,-68.970,241.516,375.061
0.177,-0.848,-2.833,-125.549,208.374,375.793
0.301,-0.524,-2.797,-154.724,145.752,364.746
0.448,-0.163,-2.746,-150.391,76.843,350.159
0.600,0.319,-2.661,-143.066,12.146,329.529
0.735,0.782,-2.526,-153.870,-42.908,303.406
0.781,0.937,-2.306,-185.913,-87.402,270.081
0.611,0.961,-2.069,-238.464,-116.760,235.840
0.422,0.908,-1.953,-294.983,-132.141,204.529
0.221,0.808,-1.909,-340.454,-144.348,182.251
0.116,0.855,-1.804,-369.934,-161.255,174.805
0.112,1.041,-1.635,-378.479,-180.359,177.856
0.175,1.351,-1.392,-367.371,-198.364,181.641
0.310,1.674,-1.140,-338.196,-212.036,173.767
0.453,2.047,-0.843,-295.227,-219.971,148.560
0.612,2.450,-0.507,-241.211,-221.558,104.187
0.800,2.636,-0.236,-176.697,-216.309,38.879
0.902,2.561,-0.038,-104.431,-206.665,-39.978
0.869,2.327,0.064,-31.494,-195.374,-120.361
0.713,2.023,0.085,34.973,-183.594,-189.819
0.518,1.691,0.048,93.079,-172.913,-244.324
0.397,1.330,-0.019,137.451,-165.222,-280.640
0.391,1.041,0.046,169.617,-160.278,-299.438
0.399,0.756,0.104,190.796,-153.870,-304.504
0.398,0.516,0.217,207.458,-143.188,-301.941
0.370,0.300,0.312,224.121,-127.747,-295.044
0.312,0.092,0.343,243.713,-108.765,-285.706
0.248,-0.107,0.306,266.907,-88.867,-274.719
0.194,-0.326,0.227,288.208,-69.153,-263.062
0.148,-0.602,0.121,300.415,-49.500,-252.014
0.096,-0.907,-0.010,302.429,-28.442,-238.892
0.028,-1.229,-0.183,287.781,-4.211,-222.839
-0.017,-1.576,-0.422,253.906,23.560,-201.416
-0.036,-1.932,-0.674,198.181,53.040,-172.180
-0.006,-2.222,-0.861,115.356,81.604,-135.864
0.059,-2.391,-0.929,9.644,109.558,-98.633
0.117,-2.427,-0.895,-100.403,137.085,-65.674
0.139,-2.364,-0.805,-197.144,163.513,-39.307
0.135,-2.242,-0.708,-271.729,185.730,-18.188
0.092,-2.128,-0.703,-322.449,200.378,0.854
0.234,-2.018,-0.445,-344.604,198.792,26.062
0.280,-1.782,-0.365,-321.106,198.669,51.086
0.243,-1.555,-0.445,-280.762,194.092,73.914
0.299,-1.385,-0.298,-229.858,171.387,98.999

-0.244,1.150,-0.762,71.045,-67.017,190.369
-0.365,1.307,-0.696,74.219,-61.523,185.486
-0.453,1.511,-0.625,77.454,-51.086,174.561
-0.523,1.723,-0.613,76.660,-36.072,158.569
-0.563,1.882,-0.634,72.021,-30.151,130.615
-0.559,1.860,-0.713,54.382,-36.255,99.426
-0.601,1.804,-0.813,34.058,-46.021,79.224
-0.664,1.869,-0.838,27.100,-56.396,66.040
-0.768,1.995,-0.781,33.691,-65.979,54.932
-0.845,2.107,-0.599,44.250,-73.669,37.842
-0.947,2.151,-0.396,53.406,-77.148,14.465
-0.998,2.143,-0.256,54.382,-76.294,-12.451
-1.084,2.099,-0.151,57.434,-70.435,-40.955
-1.079,1.983,0.137,60.303,-64.209,-77.148
-1.052,1.760,0.314,48.462,-49.438,-107.483
-1.019,1.528,0.438,30.701,-30.701,-128.723
-0.964,1.329,0.562,13.184,-10.315,-148.804
-0.891,1.145,0.599,-2.808,13.062,-169.250
-0.814,0.894,0.598,-23.865,31.921,-188.660
-0.682,0.612,0.741,-35.034,55.786,-205.078
-0.639,0.330,0.951,-48.462,77.576,-216.980
-0.575,-0.046,1.066,-74.158,105.591,-226.135
-0.492,-0.536,1.036,-106.445,137.085,-228.455
-0.358,-0.975,0.939,-134.888,166.809,-218.384
-0.210,-1.327,0.720,-161.865,188.843,-195.190
-0.116,-1.575,0.515,-179.871,197.144,-161.438
-0.100,-1.594,0.268,-188.110,192.200,-116.699
-0.171,-1.499,0.026,-201.050,175.964,-65.735
-0.297,-1.402,-0.172,-215.088,153.076,-18.799
-0.428,-1.282,-0.393,-231.506,131.348,18.250
-0.516,-1.201,-0.671,-244.141,116.638,42.542
-0.554,-1.178,-0.968,-233.154,110.474,51.636
-0.540,-1.176,-1.344,-205.261,111.389,50.720
-0.432,-1.219,-1.644,-161.682,114.380,46.387
-0.355,-1.191,-1.847,-109.619,118.652,44.617
-0.301,-1.043,-1.921,-60.730,123.047,46.204
-0.302,-0.897,-1.929,-21.301,125.427,51.208
-0.302,-0.672,-1.996,5.737,125.061,58.777
-0.292,-0.479,-2.136,21.545,118.713,65.979
-0.278,-0.335,-2.293,31.189,104.431,72.693
-0.249,-0.218,-2.480,33.936,82.825,79.834
-0.230,-0.167,-2.659,29.358,57.129,88.501
-0.153,-0.107,-2.907,24.719,33.447,104.065
-0.223,0.061,-3.019,35.767,7.874,128.174
-0.402,0.287,-3.035,54.199,-14.771,152.283
-0.575,0.591,-2.955,76.477,-35.522,173.157
-0.824,0.952,-2.779,102.966,-56.946,188.110
-1.066,1.332,-2.495,129.395,-78.491,191.345
-1.263,1.682,-2.120,151.001,-100.464,181.580
-1.400,1.950,-1.731,162.659,-121.887,161.316
-1.489,2.107,-1.363,163.574,-142.029,137.695
-1.540,2.197,-0.998,160.095,-158.325,114.075
-1.564,2.272,-0.663,152.954,-167.725,89.905
-1.537,2.315,-0.377,142.456,-168.518,64.148
-1.517,2.317,-0.114,130.188,-162.354,36.377
-1.465,2.275,0.123,121.460,-150.818,5.371
-1.374,2.153,0.294,111.206,-135.437,-28.198
-1.263,1.993,0.441,102.051,-117.676,-62.500
-1.114,1.802,0.611,94.727,-98.206,-94.910
-0.950,1.581,0.758,84.106,-77.393,-121.826
-0.796,1.347,0.826,68.542,-56.091,-143.982
-0.601,1.097,0.855,50.720,-37.231,-161.987
-0.438,0.849,0.822,28.931,-21.729,-172.485
-0.278,0.622,0.781,6.287,-10.803,-175.598
-0.169,0.405,0.767,-14.526,-3.784,-173.462
-0.054,0.151,0.803,-31.067,2.625,-169.617
0.009,-0.077,0.842,-43.579,12.146,-162.964
0.076,-0.321,0.901,-54.871,21.545,-155.273
0.113,-0.520,0.789,-77.393,35.706,-139.038
0.131,-0.707,0.655,-97.473,48.279,-118.164
0.120,-0.889,0.563,-109.863,57.983,-96.802
0.093,-0.996,0.478,-119.507,67.871,-74.463
0.028,-1.050,0.370,-129.517,78.186,-52.673
-0.028,-1.112,0.243,-138.733,88.013,-34.241
-0.091,-1.159,0.034,-149.353,95.642,-19.104
-0.156,-1.209,-0.239,-159.790,100.403,-7.019
-0.198,-1.221,-0.517,-161.499,101.440,2.747
-0.206,-1.227,-0.737,-156.006,99.609,10.986
-0.218,-1.230,-1.028,-150.269,100.647,16.052
-0.154,-1.224,-1.366,-143.005,102.112,20.447
-0.096,-1.283,-1.671,-130.371,101.379,25.879
-0.034,-1.234,-1.944,-106.140,100.220,34.363
0.004,-1.122,-2.166,-73.364,98.938,46.204
0.025,-0.975,-2.268,-36.377,97.839,59.082
-0.006,-0.774,-2.349,-3.662,96.802,71.655
-0.048,-0.592,-2.471,19.531,94.482,81.848
-0.089,-0.399,-2.592,40.161,87.158,90.698
-0.127,-0.220,-2.590,60.669,73.120,101.379
-0.181,-0.082,-2.699,71.533,60.913,122.559
-0.315,0.189,-2.730,83.130,43.091,153.320
-0.562,0.472,-2.752,89.111,21.851,181.580
-0.804,0.840,-2.703,95.520,-6.531,200.012
-1.050,1.219,-2.532,108.643,-41.260,207.031
-1.274,1.553,-2.270,120.422,-77.637,206.299
-1.471,1.841,-1.957,129.944,-110.352,199.280
-1.598,2.056,-1.630,136.841,-136.169,187.256
-1.671,2.204,-1.370,138.000,-155.090,174.255
-1.711,2.302,-1.172,136.108,-169.861,159.790
-1.728,2.347,-0.985,135.254,-183.777,141.663
-1.716,2.349,-0.716,136.658,-197.388,119.202
-1.695,2.313,-0.393,137.268,-205.933,90.515
-1.620,2.266,-0.053,133.362,-205.139,55.359
-1.536,2.185,0.226,122.925,-194.458,14.038
-1.413,2.043,0.437,109.070,-174.744,-30.151
-1.267,1.835,0.583,95.337,-148.315,-74.219
-1.152,1.592,0.689,83.374,-117.371,-116.333
-1.006,1.362,0.743,71.411,-83.069,-152.344
-0.873,1.109,0.783,58.533,-48.035,-182.678
-0.756,0.828,0.825,45.959,-15.015,-209.534
-0.644,0.509,0.797,28.992,15.503,-230.164
-0.527,0.164,0.754,7.080,42.114,-242.310
-0.410,-0.151,0.728,-13.123,62.012,-245.056
-0.309,-0.417,0.682,-33.630,74.036,-239.014
-0.225,-0.634,0.592,-56.641,79.651,-225.037
-0.167,-0.824,0.445,-82.520,81.848,-203.918
-0.115,-0.928,0.268,-107.056,82.397,-177.917
-0.086,-0.964,0.081,-124.573,83.191,-151.978
-0.090,-0.964,-0.091,-131.104,85.022,-129.639
-0.100,-0.956,-0.254,-129.150,88.745,-111.755
-0.095,-0.961,-0.407,-123.291,94.604,-99.060
-0.065,-0.979,-0.526,-114.929,102.234,-92.163
-0.020,-0.982,-0.694,-108.765,111.328,-88.867
0.035,-0.999,-0.922,-104.736,119.812,-85.876
0.099,-0.980,-1.136,-99.060,124.634,-80.688
0.140,-0.903,-1.340,-86.914,125.183,-71.899
0.164,-0.786,-1.480,-68.726,121.460,-61.462
0.177,-0.627,-1.552,-48.706,115.173,-49.500
0.170,-0.466,-1.574,-30.273,106.934,-37.415
0.149,-0.314,-1.594,-16.846,97.839,-25.330
0.128,-0.177,-1.576,-9.888,87.341,-13.245
0.119,-0.066,-1.569,-10.193,78.552,-2.747
0.125,0.040,-1.524,-11.475,71.960,6.653
0.043,0.087,-1.573,-15.076,69.641,12.085
0.031,0.150,-1.675,-18.250,69.519,16.113
0.015,0.168,-1.817,-19.470,66.711,24.231
-0.014,0.173,-1.928,-15.015,59.509,37.720
-0.077,0.246,-1.951,1.221,47.974,54.565
-0.174,0.406,-1.889,23.682,33.325,71.716
-0.291,0.558,-1.781,42.908,19.592,83.252
-0.364,0.695,-1.608,55.359,4.883,89.722
-0.435,0.814,-1.471,59.814,-6.897,91.431
-0.479,0.905,-1.325,59.143,-19.043,87.097
-0.500,0.946,-1.222,52.185,-26.184,77.393
-0.493,0.938,-1.140,44.006,-31.433,67.139
-0.482,0.900,-1.074,36.804,-35.583,57.739
-0.452,0.864,-1.022,30.579,-39.001,49.744
-0.416,0.828,-1.000,23.865,-41.992,44.006
-0.395,0.784,-1.001,18.555,-44.312,40.466
-0.376,0.752,-0.992,14.648,-46.875,37.354

-0.023,0.463,-1.064,-6.470,-8.362,42.175
0.023,0.359,-1.033,-1.648,-12.451,41.382
0.049,0.368,-1.061,6.287,-16.174,45.837
0.061,0.353,-1.098,10.132,-15.991,54.688
0.061,0.370,-1.156,16.541,-14.893,63.232
0.059,0.393,-1.187,23.254,-15.381,69.092
0.052,0.423,-1.232,25.024,-17.029,73.853
0.044,0.436,-1.302,28.198,-19.653,78.308
0.053,0.469,-1.365,27.100,-27.100,82.397
0.041,0.529,-1.402,28.320,-38.208,89.111
0.026,0.693,-1.415,23.682,-52.673,95.276
-0.003,0.821,-1.436,15.015,-67.322,97.595
-0.082,0.930,-1.444,12.634,-79.407,94.910
-0.170,1.073,-1.448,15.259,-88.684,88.562
-0.250,1.194,-1.439,25.818,-95.642,77.393
-0.351,1.276,-1.376,37.231,-101.624,62.439
-0.483,1.323,-1.316,43.457,-99.365,51.086
-0.582,1.384,-1.237,57.678,-92.590,39.795
-0.626,1.456,-1.145,76.050,-84.229,25.513
-0.525,1.509,-0.962,92.224,-76.782,5.554
-0.804,1.493,-0.882,106.995,-69.580,-17.212
-0.748,1.549,-0.718,121.582,-60.486,-36.621
-0.814,1.594,-0.609,135.254,-56.824,-59.326
-0.903,1.587,-0.418,134.766,-55.359,-86.304
-0.878,1.510,-0.284,113.098,-49.744,-112.061
-0.788,1.400,-0.201,87.280,-42.908,-137.878
-0.741,1.284,-0.102,67.444,-36.255,-164.673
-0.691,1.121,0.016,51.941,-28.870,-191.162
-0.644,1.018,0.121,33.813,-19.958,-214.600
-0.603,0.883,0.233,13.611,-9.338,-234.802
-0.536,0.686,0.263,-9.033,1.831,-251.770
-0.477,0.492,0.327,-32.715,12.085,-263.428
-0.425,0.348,0.416,-45.959,22.827,-270.447
-0.385,0.201,0.502,-55.176,37.109,-272.888
-0.349,0.059,0.539,-67.444,56.641,-271.179
-0.360,-0.036,0.497,-80.811,78.979,-265.442
-0.337,-0.179,0.537,-78.430,102.173,-260.132
-0.378,-0.326,0.471,-81.482,127.808,-253.601
-0.424,-0.470,0.363,-93.201,152.100,-243.835
-0.410,-0.616,0.219,-102.234,172.729,-232.727
-0.403,-0.802,0.098,-107.605,189.209,-222.900
-0.389,-0.994,-0.033,-110.535,202.393,-213.684
-0.311,-1.148,-0.153,-110.229,213.013,-203.918
-0.218,-1.258,-0.251,-108.704,221.069,-192.261
-0.160,-1.311,-0.322,-104.309,227.478,-176.575
-0.160,-1.336,-0.386,-96.008,232.788,-154.236
-0.178,-1.290,-0.522,-86.731,236.267,-124.207
-0.202,-1.214,-0.709,-83.984,235.840,-89.111
-0.247,-1.181,-0.901,-90.027,229.797,-54.260
-0.277,-1.214,-1.143,-100.464,220.764,-25.269
