aX,aY,aZ,gX,gY,gZ
0.324,0.063,-0.993,-18.616,-71.777,-49.866
0.421,0.117,-0.865,-10.010,-66.711,-37.109
0.443,0.241,-0.781,-1.160,-56.213,-22.522
0.370,0.244,-0.746,-0.854,-37.292,-9.888
0.341,0.212,-0.813,0.122,-17.334,0.793
0.371,0.192,-0.914,10.071,0.854,7.812
0.407,0.192,-0.942,22.644,12.390,14.282
0.389,0.202,-0.932,24.963,13.916,21.912
0.379,0.157,-0.859,27.222,9.827,29.724
0.326,0.273,-0.939,20.630,2.136,36.987
0.243,0.461,-1.065,9.521,-10.071,40.100
0.241,0.542,-0.987,1.953,-28.625,30.579
0.311,0.466,-0.866,-4.944,-44.861,11.658
0.345,0.366,-0.851,-18.188,-54.138,-2.930
0.340,0.122,-0.837,-28.870,-61.279,-6.836
0.355,0.156,-0.922,-33.142,-69.580,-3.113
0.406,0.133,-0.872,-35.950,-75.745,6.531
0.426,0.143,-0.772,-41.626,-79.407,21.240
0.361,0.105,-0.703,-60.730,-75.684,34.973
0.182,-0.104,-0.680,-67.932,-66.101,43.457
0.169,0.134,-0.706,-43.457,-49.438,49.438
0.221,0.366,-0.762,-11.047,-27.527,46.753
0.353,0.475,-0.721,12.695,-5.615,33.264
0.366,0.586,-0.633,31.067,16.418,13.367
0.323,0.515,-0.704,49.622,42.053,-8.545
0.351,0.548,-0.786,57.861,66.895,-24.658
0.412,0.551,-0.846,78.247,89.844,-35.461
0.471,0.604,-0.924,104.370,112.305,-42.603
0.525,0.550,-1.005,119.324,134.949,-49.072
0.613,0.456,-1.164,119.995,154.907,-55.603
0.701,0.446,-1.341,109.436,164.795,-60.181
0.734,0.526,-1.630,84.778,161.804,-65.735
0.705,0.612,-1.981,42.969,143.066,-76.233
0.662,0.519,-2.359,-7.019,105.530,-92.834
0.615,0.339,-2.733,-45.837,50.659,-109.009
0.641,0.219,-2.850,-58.411,-13.245,-121.582
0.722,0.104,-2.848,-59.570,-76.904,-129.822
0.805,-0.058,-2.894,-54.871,-132.568,-133.789
0.893,-0.225,-2.889,-41.687,-178.894,-130.127
0.893,-0.302,-2.761,-17.395,-219.604,-117.859
0.856,-0.287,-2.530,12.573,-254.456,-98.877
0.817,-0.276,-2.281,35.950,-282.532,-76.050
0.746,-0.276,-2.055,47.974,-305.664,-52.185
0.623,-0.347,-1.942,50.171,-326.904,-29.541
0.446,-0.420,-1.861,51.208,-351.196,-5.859
0.217,-0.521,-1.815,56.152,-380.554,21.729
-0.070,-0.570,-1.698,59.326,-418.396,54.810
-0.434,-0.527,-1.405,60.974,-464.722,91.736
-0.775,-0.470,-0.973,56.519,-509.399,129.761
-1.032,-0.346,-0.765,38.818,-542.236,167.297
-1.245,-0.267,-0.472,13.550,-562.378,199.585
-1.468,-0.211,-0.210,-4.761,-569.397,222.351
-1.740,-0.157,0.046,-19.653,-565.613,234.863
-2.008,-0.082,0.345,-29.602,-554.749,238.098
-2.468,-0.067,0.766,-23.315,-535.767,235.596
-2.917,0.211,1.526,-15.991,-505.005,235.352
-3.150,0.702,2.268,-37.415,-449.097,246.399
-3.311,1.500,2.660,-67.688,-357.361,269.592
-3.356,2.578,3.125,-95.642,-233.276,270.447
-3.483,3.596,3.226,-96.252,-68.848,205.994
-3.678,3.969,2.835,-76.599,120.667,62.500
-3.700,3.379,1.921,-47.913,302.612,-131.348
-3.563,2.025,0.745,-25.452,443.481,-315.552
-3.153,0.579,-0.596,-10.376,527.039,-441.772
-2.263,-0.686,-1.633,-7.263,544.617,-495.850
-1.032,-1.816,-2.811,-21.729,523.437,-498.352
0.503,-2.457,-3.431,-48.645,454.773,-461.548
2.042,-2.290,-3.309,-56.641,348.816,-394.104
3.401,-1.783,-2.937,-34.546,247.681,-319.275
4.000,-1.856,-2.691,-10.986,180.298,-268.677
4.000,-2.201,-2.648,12.817,144.287,-240.601
4.000,-2.454,-2.726,48.279,117.920,-205.261
4.000,-2.439,-2.629,80.627,64.270,-140.320
4.000,-2.213,-2.341,85.083,-22.461,-47.424
3.921,-1.775,-1.912,75.623,-114.014,40.649
3.132,-1.430,-1.549,58.350,-185.852,106.567
2.293,-1.115,-1.299,41.321,-233.887,157.837
1.503,-0.799,-1.103,33.203,-264.648,200.806
0.835,-0.540,-0.936,32.166,-283.875,231.201
0.218,-0.319,-0.826,32.043,-295.593,245.605
-0.393,-0.116,-0.704,29.785,-305.725,245.972
-0.940,0.059,-0.483,23.315,-319.458,235.291
-1.410,0.206,-0.177,7.629,-334.717,217.407
-1.885,0.375,0.181,-17.029,-344.360,201.477
-2.409,0.593,0.632,-48.035,-339.722,195.435
-2.850,1.033,1.173,-64.026,-308.105,203.064
-3.124,1.747,1.714,-61.768,-243.042,211.182
-3.352,2.581,2.135,-48.279,-143.433,195.984
-3.479,3.228,2.394,-28.625,-20.264,137.329
-3.422,3.381,2.245,-17.944,115.417,29.968
-3.275,2.838,1.510,-19.958,248.535,-105.042
-2.959,1.757,0.408,-28.625,353.882,-232.910
-2.453,0.622,-0.640,-33.691,412.781,-324.219
-1.776,-0.343,-1.496,-33.508,426.636,-367.310
-0.912,-0.948,-1.911,-26.489,407.104,-365.967
0.075,-1.119,-2.102,-13.916,375.977,-334.656
1.122,-1.206,-2.034,-4.456,345.337,-297.180
2.192,-1.221,-2.136,-1.343,326.294,-271.484
3.205,-1.406,-2.390,2.502,314.087,-261.841
3.981,-1.823,-2.553,13.916,291.809,-258.606
4.000,-2.191,-2.644,24.414,247.375,-239.197
4.000,-2.381,-2.671,23.804,173.584,-191.284
4.000,-2.318,-2.508,12.756,74.341,-121.826
4.000,-2.136,-2.201,-6.531,-26.306,-42.847
4.000,-1.833,-1.882,-16.846,-102.661,32.837
3.576,-1.572,-1.621,-15.259,-149.109,98.206
2.849,-1.338,-1.540,-8.484,-173.584,158.020
2.109,-1.042,-1.521,2.014,-188.293,214.661
1.410,-0.733,-1.501,15.442,-200.989,260.681
0.768,-0.419,-1.533,25.940,-215.637,290.771
0.205,-0.142,-1.588,30.212,-236.877,302.185
-0.241,0.070,-1.610,29.480,-267.517,294.739
-0.606,0.179,-1.582,24.597,-306.946,272.766
-0.910,0.202,-1.444,17.578,-350.708,243.225
-1.120,0.235,-1.240,8.972,-391.968,211.182
-1.292,0.199,-1.008,-1.038,-426.758,177.063
-1.552,0.097,-0.686,-10.986,-454.346,146.423
-1.874,0.032,-0.230,-21.667,-472.412,128.540
-2.196,0.021,0.320,-30.273,-472.412,130.493
-2.501,0.205,0.999,-38.330,-448.303,157.776
-2.732,0.533,1.649,-45.959,-389.282,203.796
-2.959,1.016,2.170,-49.255,-291.077,248.657
-3.211,1.742,2.561,-43.274,-156.860,266.968
-3.351,2.551,2.804,-33.447,2.014,237.610
-3.358,3.040,2.708,-26.733,171.326,149.719
-3.355,2.782,2.107,-22.400,332.092,17.578
-3.280,2.060,1.239,-21.057,463.440,-121.643
-3.068,1.264,0.357,-25.208,550.964,-237.854
-2.777,0.495,-0.573,-46.265,588.379,-320.984
-2.318,-0.216,-1.219,-82.642,569.702,-376.160
-1.710,-0.783,-1.757,-126.282,527.344,-413.391
-0.891,-1.240,-2.193,-172.119,460.327,-434.143
0.091,-1.766,-2.634,-205.444,377.625,-438.538
1.275,-1.977,-2.786,-199.707,294.617,-418.640
2.495,-1.822,-2.649,-158.997,234.192,-378.174
3.088,-1.785,-2.328,-98.572,215.942,-335.083
3.212,-1.685,-2.056,-27.893,233.704,-290.222
3.242,-1.573,-2.019,34.668,262.939,-234.314
3.169,-1.607,-1.996,76.904,277.954,-176.514
3.040,-1.504,-2.001,93.994,267.883,-116.211
2.798,-1.248,-1.984,87.708,235.352,-49.866
2.463,-0.828,-1.852,71.838,182.434,17.029
2.113,-0.422,-1.637,55.481,117.249,70.435
1.835,-0.145,-1.344,36.560,56.091,100.708
1.597,0.059,-1.175,14.404,13.123,110.962
1.394,0.080,-1.013,-6.592,-16.785,104.370
1.212,0.101,-0.951,-15.564,-36.499,93.506
1.048,0.103,-0.902,-15.137,-40.894,87.708
0.915,0.099,-0.786,-7.446,-44.861,81.665

0.888,0.198,-0.681,12.451,-30.762,-35.767
0.961,0.193,-0.473,5.554,-38.757,-29.175
0.920,0.215,-0.465,-16.174,-48.218,-9.216
0.866,0.197,-0.599,-38.330,-47.363,7.751
0.865,0.177,-0.736,-42.786,-40.710,13.123
0.883,0.155,-0.633,-32.654,-38.574,12.634
0.913,0.216,-0.605,-30.090,-37.537,14.465
0.950,0.244,-0.696,-38.391,-35.583,17.395
0.983,0.267,-0.687,-36.133,-32.166,16.968
0.994,0.193,-0.682,-22.644,-23.010,13.245
1.012,0.117,-0.708,-7.568,-11.597,9.033
1.050,0.085,-0.729,6.348,-5.249,6.531
1.061,0.060,-0.717,17.456,-5.554,6.653
1.071,0.061,-0.712,20.630,-11.292,7.324
1.070,0.095,-0.737,12.939,-19.958,7.385
1.077,0.080,-0.715,-8.789,-31.372,7.019
1.158,0.055,-0.852,-34.851,-45.593,7.141
1.103,-0.007,-0.881,-57.983,-61.951,7.996
1.007,-0.382,-0.785,-70.007,-76.294,8.545
1.286,-0.208,-0.945,-55.786,-81.299,15.564
1.589,0.101,-1.142,-58.777,-82.581,17.517
1.518,-0.008,-1.134,-73.486,-88.501,4.456
1.268,-0.171,-1.077,-60.547,-98.572,-7.202
1.146,-0.083,-1.054,-40.283,-108.398,-5.920
1.173,-0.026,-0.937,-40.161,-117.371,-0.549
1.180,-0.073,-0.943,-44.556,-124.878,2.258
1.153,-0.200,-0.953,-42.236,-132.690,6.836
1.100,-0.272,-0.857,-33.386,-141.846,20.874
1.061,-0.275,-0.739,-23.560,-146.912,44.617
1.003,-0.270,-0.699,-20.325,-147.156,72.388
0.914,-0.316,-0.665,-19.592,-146.729,98.633
0.808,-0.301,-0.608,-12.573,-146.545,122.314
0.698,-0.216,-0.527,-3.357,-145.508,143.738
0.588,-0.134,-0.426,2.563,-142.639,161.255
0.491,-0.107,-0.336,3.784,-138.184,174.255
0.378,-0.064,-0.254,2.197,-133.667,184.937
0.258,0.000,-0.189,0.061,-129.883,194.092
0.161,0.051,-0.158,-3.174,-126.770,200.745
0.069,0.085,-0.138,-6.226,-125.427,205.078
-0.023,0.137,-0.108,-7.385,-127.075,207.703
-0.100,0.155,-0.055,-7.568,-131.042,208.557
-0.184,0.155,0.020,-4.883,-135.498,208.679
-0.284,0.261,0.189,1.526,-137.146,211.548
-0.419,0.422,0.389,5.371,-131.104,217.407
-0.636,0.636,0.555,2.502,-115.295,224.731
-0.923,0.866,0.768,-2.930,-91.858,230.225
-1.226,1.196,1.058,-3.235,-60.730,231.140
-1.569,1.644,1.306,-5.981,-18.738,225.464
-1.900,2.170,1.400,-20.447,34.851,204.651
-2.168,2.724,1.257,-48.523,95.276,157.349
-2.227,2.844,0.940,-83.374,150.146,76.721
-2.400,2.662,0.551,-106.750,189.819,-29.236
-2.364,2.191,0.188,-95.886,214.539,-147.339
-2.129,1.442,-0.052,-66.467,234.070,-263.672
-1.880,0.549,-0.567,-57.068,254.761,-357.239
-1.414,-0.285,-1.039,-40.649,269.043,-417.053
-0.870,-0.823,-1.277,-2.014,275.818,-441.956
-0.377,-0.996,-1.269,32.715,283.630,-432.495
-0.008,-0.834,-1.300,44.434,296.692,-394.775
0.369,-0.886,-1.453,37.415,306.091,-348.389
0.916,-1.008,-1.774,21.851,316.101,-307.068
1.603,-1.198,-2.193,8.057,320.618,-282.593
2.361,-1.644,-2.667,-0.793,317.383,-275.513
3.206,-2.124,-3.003,-0.427,297.668,-266.602
3.814,-2.354,-3.244,5.676,255.066,-234.009
4.000,-2.397,-3.240,23.132,192.810,-189.148
4.000,-2.194,-3.024,38.879,118.774,-128.052
4.000,-1.920,-2.777,43.945,44.556,-52.185
3.702,-1.634,-2.493,42.908,-26.123,23.987
3.187,-1.330,-2.209,42.175,-87.524,87.585
2.609,-1.021,-2.016,38.818,-129.211,135.620
2.018,-0.694,-1.901,41.199,-154.236,174.438
1.453,-0.404,-1.835,49.194,-172.913,205.688
0.945,-0.168,-1.785,53.955,-192.383,228.394
0.494,0.059,-1.737,53.345,-215.942,240.967
0.126,0.257,-1.713,47.119,-244.751,242.310
-0.181,0.363,-1.687,37.354,-278.992,233.643
-0.443,0.465,-1.623,30.762,-319.031,218.445
-0.650,0.490,-1.432,29.236,-361.328,198.792
-0.850,0.431,-1.137,31.250,-399.475,176.025
-1.024,0.329,-0.757,28.076,-428.406,152.283
-1.208,0.226,-0.363,15.808,-443.420,131.592
-1.405,0.182,0.027,-3.662,-443.237,117.371
-1.588,0.279,0.390,-21.545,-427.063,111.511
-1.783,0.441,0.756,-26.550,-392.761,114.136
-2.027,0.656,1.146,-16.357,-338.623,126.465
-2.253,1.032,1.545,0.732,-263.855,150.269
-2.475,1.561,1.948,15.381,-170.715,173.157
-2.662,2.158,2.214,23.865,-60.608,171.082
-2.818,2.597,2.224,18.555,61.707,121.887
-2.870,2.649,1.917,6.897,182.617,22.156
-2.765,2.225,1.383,-0.183,286.133,-107.849
-2.588,1.439,0.752,-3.601,363.525,-235.962
-2.275,0.493,-0.010,-5.188,410.583,-332.275
-1.748,-0.365,-0.674,0.916,428.406,-387.146
-1.099,-0.987,-1.164,4.883,432.617,-408.264
-0.415,-1.313,-1.418,-2.258,420.776,-399.963
0.384,-1.511,-1.692,-32.959,399.475,-376.221
1.213,-1.527,-1.974,-72.754,367.432,-346.313
2.096,-1.439,-2.440,-96.924,326.294,-315.918
3.033,-1.645,-2.920,-95.886,279.175,-290.344
3.806,-2.008,-3.189,-65.125,232.971,-264.343
4.000,-2.228,-3.146,-15.930,189.331,-227.417
4.000,-2.228,-2.979,24.353,145.447,-167.847
4.000,-1.990,-2.765,52.124,91.736,-90.698
3.975,-1.627,-2.477,66.711,25.330,-13.489
3.438,-1.357,-2.214,59.570,-45.044,50.720
2.832,-1.103,-1.986,40.222,-110.657,102.600
2.230,-0.843,-1.764,24.597,-164.673,144.470
1.652,-0.582,-1.547,19.348,-205.200,178.101
1.146,-0.378,-1.371,20.142,-232.117,203.186
0.735,-0.227,-1.234,21.667,-247.986,219.055
0.371,-0.151,-1.159,19.226,-257.141,227.783
0.070,-0.085,-1.120,14.832,-265.991,231.995
-0.193,-0.069,-1.073,8.972,-279.907,229.797
-0.437,-0.084,-0.968,5.188,-299.500,224.915
-0.673,-0.129,-0.785,3.540,-322.693,221.436
-0.898,-0.138,-0.529,3.235,-344.482,221.924
-1.109,-0.076,-0.202,5.005,-358.765,227.051
-1.303,0.055,0.147,6.348,-360.229,234.436
-1.548,0.117,0.461,4.028,-346.436,241.272
-1.838,0.233,0.869,3.113,-318.115,250.610
-2.116,0.570,1.345,0.122,-272.827,267.517
-2.344,1.108,1.749,-18.921,-207.642,283.691
-2.518,1.779,1.994,-52.429,-125.916,281.860
-2.665,2.470,2.054,-83.191,-35.034,242.859
-2.744,2.888,1.906,-102.173,60.425,156.067
-2.715,2.692,1.524,-106.934,155.396,27.405
-2.519,2.115,0.989,-87.341,242.249,-116.760
-2.302,1.424,0.490,-56.641,315.552,-247.375
-2.117,0.730,-0.031,-35.095,373.047,-347.534
-1.816,-0.089,-0.672,-34.668,409.851,-413.696
-1.254,-0.792,-1.228,-45.654,420.471,-447.510
-0.522,-1.392,-1.730,-66.284,404.236,-455.078
0.381,-1.762,-2.044,-108.154,361.206,-442.200
1.179,-1.633,-2.222,-144.592,305.481,-417.175
1.835,-1.315,-2.336,-152.283,241.821,-384.888
2.247,-1.183,-2.444,-138.977,178.772,-348.694
2.585,-1.219,-2.317,-101.501,119.995,-309.570
2.732,-1.182,-1.938,-45.349,74.402,-269.226
2.729,-1.211,-1.446,3.418,49.011,-227.722
2.650,-1.056,-0.981,48.218,45.959,-185.852
2.501,-1.008,-0.712,78.918,64.636,-145.081
2.327,-0.964,-0.650,93.384,96.680,-104.309
2.144,-0.886,-0.722,94.238,128.296,-62.317
1.957,-0.783,-0.884,85.144,149.231,-21.423
1.744,-0.617,-0.993,76.416,152.588,15.015
1.509,-0.370,-1.049,70.984,138.916,46.509
1.338,-0.282,-0.999,59.509,109.802,70.007

0.810,-0.135,-1.197,-46.692,7.935,-32.104
0.838,-0.067,-1.017,-44.006,-4.761,-19.653
0.843,0.065,-0.812,-27.649,-21.301,-8.118
0.897,0.072,-0.703,-32.959,-23.621,0.977
0.924,-0.031,-0.823,-48.767,-9.583,2.258
1.093,-0.141,-1.156,-62.561,0.488,-1.038
1.190,-0.294,-1.437,-56.641,-10.498,-5.188
1.291,-0.356,-1.427,-35.583,-42.480,-4.456
1.393,-0.338,-1.252,-25.330,-75.867,2.014
1.395,-0.378,-1.241,-31.189,-95.947,9.644
1.462,-0.428,-1.288,-36.316,-107.605,15.198
1.515,-0.489,-1.255,-22.827,-115.112,19.104
1.552,-0.596,-1.130,-4.028,-117.737,23.437
1.556,-0.673,-1.074,9.705,-117.859,32.654
1.531,-0.677,-1.117,19.531,-121.765,46.570
1.451,-0.612,-1.072,31.067,-133.301,63.904
1.329,-0.523,-1.059,38.513,-151.367,81.909
1.218,-0.496,-1.006,40.344,-166.382,101.013
1.139,-0.401,-0.996,35.583,-183.350,118.469
1.033,-0.302,-0.998,20.081,-201.294,131.714
0.956,-0.299,-0.971,-1.465,-214.478,139.771
0.745,-0.390,-0.849,-8.240,-224.792,145.752
0.684,-0.155,-0.744,2.563,-231.995,154.480
0.649,-0.022,-0.573,8.789,-233.521,159.851
0.564,0.020,-0.436,2.502,-228.638,158.936
0.455,0.082,-0.334,-5.188,-218.750,154.785
0.365,0.027,-0.265,-20.264,-203.552,149.597
0.297,-0.050,-0.269,-30.396,-185.425,146.729
0.201,-0.104,-0.278,-29.358,-170.166,149.048
0.069,-0.094,-0.250,-23.499,-161.255,155.579
-0.045,-0.064,-0.204,-17.212,-158.081,164.856
-0.134,-0.035,-0.119,-9.155,-159.363,175.415
-0.234,0.027,0.032,2.319,-162.170,185.425
-0.374,0.122,0.207,14.404,-162.048,193.848
-0.601,0.316,0.494,23.071,-155.029,202.576
-0.922,0.611,0.855,25.818,-135.803,214.172
-1.243,0.959,1.139,14.404,-102.234,229.614
-1.622,1.396,1.309,-7.568,-55.237,242.554
-2.011,1.801,1.353,-26.001,1.465,241.089
-2.380,2.254,1.341,-36.133,67.444,217.102
-2.686,2.648,1.278,-36.499,140.808,162.354
-2.948,2.879,1.039,-33.691,216.858,75.134
-3.067,2.730,0.701,-28.870,285.217,-39.124
-3.075,2.204,0.271,-22.217,340.332,-166.382
-2.880,1.376,-0.228,-16.602,379.395,-286.743
-2.549,0.432,-0.791,-7.507,403.198,-381.714
-2.043,-0.396,-1.208,6.470,407.227,-435.974
-1.334,-1.224,-1.655,13.306,404.358,-455.261
-0.399,-1.793,-2.010,4.456,395.142,-441.772
0.518,-1.848,-2.221,-11.902,375.732,-399.475
1.432,-1.652,-2.482,-34.729,351.807,-344.849
2.358,-1.687,-3.010,-56.091,328.003,-299.316
3.269,-2.083,-3.540,-55.054,300.354,-273.193
4.000,-2.667,-3.774,-26.733,262.756,-256.165
4.000,-3.010,-3.772,9.277,217.041,-231.689
4.000,-2.965,-3.636,42.603,157.349,-189.636
4.000,-2.723,-3.377,57.861,79.590,-121.704
4.000,-2.387,-3.039,59.998,-16.846,-31.433
3.753,-2.023,-2.582,50.720,-120.300,60.303
2.901,-1.641,-2.156,31.982,-206.299,138.000
2.081,-1.266,-1.873,14.709,-262.390,196.594
1.373,-0.956,-1.673,8.118,-293.823,238.647
0.778,-0.738,-1.505,9.338,-308.655,268.250
0.264,-0.562,-1.386,10.742,-313.599,288.818
-0.192,-0.405,-1.345,7.202,-317.810,300.598
-0.602,-0.255,-1.321,0.732,-330.994,304.077
-1.001,-0.114,-1.206,-4.822,-356.140,300.232
-1.404,-0.064,-0.975,-13.062,-386.841,289.368
-1.787,0.042,-0.654,-25.513,-414.795,275.269
-2.193,0.190,-0.254,-35.950,-430.969,260.193
-2.557,0.405,0.303,-37.781,-427.734,248.169
-2.843,0.778,0.999,-36.255,-393.921,247.559
-3.115,1.477,1.536,-52.185,-317.566,262.634
-3.323,2.460,1.719,-79.468,-203.918,277.710
-3.567,3.249,1.697,-82.581,-76.050,251.221
-3.720,3.656,1.594,-60.486,46.692,155.945
-3.580,3.449,1.304,-36.621,160.706,-1.892
-3.408,2.594,0.765,-21.240,254.333,-187.805
-3.151,1.513,0.213,-5.737,317.017,-354.980
-2.752,0.336,-0.346,-8.484,362.305,-486.816
-2.209,-0.670,-0.821,-22.339,381.653,-557.068
-1.503,-1.610,-1.241,-48.340,380.066,-575.073
-0.524,-2.331,-1.549,-80.811,361.206,-556.213
0.631,-2.797,-1.860,-111.389,332.764,-511.658
1.731,-2.633,-2.139,-112.671,298.950,-446.350
2.730,-2.297,-2.200,-73.303,262.207,-380.127
3.575,-2.462,-2.305,-44.128,238.647,-325.745
4.000,-2.705,-2.478,-20.386,229.675,-272.583
4.000,-2.878,-2.653,6.775,222.778,-223.511
4.000,-2.817,-2.854,39.612,200.073,-165.161
4.000,-2.589,-2.889,75.134,147.400,-99.121
4.000,-2.405,-2.772,96.313,69.580,-26.550
3.610,-2.192,-2.571,87.524,-15.503,51.697
2.878,-1.787,-2.328,57.983,-94.360,133.118
2.105,-1.331,-2.100,26.489,-160.095,204.834
1.422,-0.942,-1.896,5.920,-210.083,256.653
0.847,-0.670,-1.724,-3.784,-244.324,287.109
0.393,-0.491,-1.598,-5.859,-265.808,300.232
0.033,-0.457,-1.521,-6.531,-280.334,301.270
-0.265,-0.378,-1.417,-2.319,-292.847,297.668
-0.496,-0.343,-1.291,1.343,-306.030,290.649
-0.709,-0.322,-1.155,-2.014,-321.411,284.973
-0.897,-0.267,-1.008,-7.874,-340.149,283.447
-1.107,-0.258,-0.814,-12.451,-361.267,284.058
-1.309,-0.239,-0.554,-14.038,-380.493,285.400
-1.465,-0.122,-0.209,-12.695,-392.761,287.048
-1.648,-0.070,0.115,-15.259,-390.381,287.415
-1.922,-0.103,0.422,-19.531,-371.094,291.382
-2.287,0.005,0.752,-25.452,-335.144,309.448
-2.792,0.418,1.117,-41.260,-282.898,346.863
-3.264,1.420,1.553,-66.162,-213.379,388.550
-3.593,2.922,1.928,-83.923,-122.070,389.771
-3.908,3.988,2.111,-90.942,-12.024,301.208
-3.828,4.000,1.921,-92.712,101.013,118.408
-3.510,3.263,1.302,-87.097,201.660,-110.779
-3.202,2.039,0.734,-61.768,280.762,-326.721
-2.880,0.993,0.344,-29.846,341.064,-484.314
-2.688,0.237,0.023,-9.521,387.756,-578.430
-2.439,-0.504,-0.367,-13.916,421.265,-627.258
-2.040,-1.273,-0.957,-51.941,432.922,-647.583
-1.196,-2.442,-1.644,-114.990,413.086,-652.222
0.131,-3.539,-2.317,-188.843,366.882,-642.822
1.339,-3.639,-2.658,-199.951,294.067,-609.741
2.210,-3.243,-2.784,-138.489,216.187,-552.246
2.895,-2.859,-2.627,-69.336,142.517,-473.328
3.073,-2.887,-2.366,-21.484,86.670,-377.563
3.396,-2.628,-1.842,17.822,64.880,-262.512
3.229,-2.403,-1.531,41.016,75.562,-144.104
2.924,-1.854,-1.198,82.275,96.985,-54.077
2.570,-1.389,-0.942,108.398,119.568,-0.488
2.237,-1.053,-0.959,104.248,141.968,34.668
1.944,-0.800,-1.052,95.337,151.978,60.486
1.686,-0.568,-1.118,89.478,143.311,78.979
1.455,-0.382,-1.104,82.886,119.385,91.125
1.188,-0.109,-1.097,73.120,88.196,96.680
0.950,0.035,-0.932,51.392,47.302,87.158
0.887,-0.013,-0.726,22.156,0.366,66.284
0.840,-0.028,-0.607,1.892,-21.912,55.298
0.758,-0.036,-0.606,-11.719,-23.926,52.734
0.684,-0.084,-0.637,-11.719,-21.240,48.035
0.653,-0.128,-0.633,-4.211,-19.470,42.908
0.637,-0.107,-0.621,-0.244,-18.250,42.908
0.627,-0.077,-0.541,-2.563,-19.287,47.058
0.608,0.020,-0.510,-2.625,-18.250,53.284
0.596,0.051,-0.542,-7.812,-11.597,59.326
0.591,0.079,-0.549,-10.193,-5.676,63.782
0.540,0.155,-0.568,-8.423,-0.427,65.735
0.538,0.150,-0.524,-7.629,2.197,62.378
0.491,0.216,-0.515,-6.287,9.827,60.425

0.578,0.205,-0.757,11.353,2.686,13.367
0.535,0.191,-0.714,10.681,2.197,12.451
0.592,0.281,-0.701,12.512,1.831,10.620
0.589,0.229,-0.758,10.437,5.676,5.798
0.605,0.140,-0.822,4.883,8.789,3.296
0.649,0.100,-0.841,6.348,9.399,5.066
0.661,0.115,-0.833,10.071,8.301,10.498
0.651,0.178,-0.796,12.146,7.019,17.212
0.630,0.256,-0.784,11.414,7.507,23.926
0.654,0.331,-0.799,5.676,8.179,27.161
0.665,0.337,-0.799,-4.517,7.751,27.100
0.663,0.324,-0.856,-17.212,5.249,24.536
0.682,0.249,-0.939,-32.471,-3.967,20.996
0.726,0.222,-0.961,-45.288,-19.836,19.470
0.785,0.219,-0.951,-57.617,-37.781,22.888
0.821,0.279,-0.989,-75.378,-54.504,29.785
0.869,0.307,-1.033,-97.351,-70.007,35.461
0.858,0.330,-1.070,-121.399,-83.984,36.560
0.805,0.376,-1.070,-154.968,-93.811,33.081
0.924,0.430,-1.201,-199.341,-95.764,25.269
1.059,0.307,-1.124,-242.859,-97.290,15.137
0.897,-0.196,-1.055,-264.160,-99.182,3.845
0.765,-0.167,-0.829,-296.326,-95.886,10.681
0.842,0.199,-0.955,-310.669,-86.060,22.400
1.015,0.152,-1.111,-286.072,-79.163,15.381
1.208,-0.139,-1.166,-265.503,-80.139,0.122
1.316,-0.456,-1.125,-258.301,-85.632,-9.705
1.399,-0.571,-1.156,-254.700,-90.088,-9.399
1.402,-0.817,-1.321,-244.141,-92.773,5.371
1.292,-1.054,-1.311,-216.370,-96.558,35.217
1.227,-1.033,-1.111,-169.800,-97.595,73.669
1.222,-0.662,-0.847,-122.253,-91.431,110.474
1.180,-0.334,-0.602,-94.238,-78.613,134.827
1.067,-0.288,-0.543,-105.835,-60.364,146.301
0.945,-0.356,-0.678,-136.353,-42.175,149.658
0.865,-0.432,-0.943,-142.578,-32.776,149.780
0.805,-0.500,-0.980,-127.380,-37.903,152.222
0.730,-0.571,-0.927,-119.751,-52.185,160.706
0.657,-0.591,-0.893,-111.023,-66.956,176.147
0.551,-0.549,-0.735,-96.680,-81.421,194.519
0.439,-0.439,-0.562,-81.787,-90.942,210.876
0.352,-0.291,-0.431,-68.054,-93.872,222.473
0.316,-0.138,-0.344,-59.998,-92.651,229.126
0.284,-0.033,-0.233,-62.988,-88.440,232.422
0.230,0.023,-0.181,-70.679,-81.299,233.582
0.176,0.033,-0.188,-79.407,-72.205,235.168
0.118,0.048,-0.167,-88.623,-62.195,236.694
0.051,0.025,-0.146,-89.355,-52.063,237.366
-0.044,0.013,-0.141,-77.515,-41.870,238.403
-0.197,0.024,-0.130,-54.016,-31.616,239.014
-0.425,0.078,-0.123,-21.729,-21.301,237.976
-0.715,0.153,-0.109,15.381,-11.108,233.276
-1.155,0.482,-0.145,48.950,-3.540,223.755
-1.634,1.265,-0.205,91.553,3.113,199.829
-1.959,1.742,-0.419,105.957,8.362,150.452
-2.085,2.079,-0.610,75.073,3.418,73.486
-2.246,2.233,-0.995,30.273,-4.883,-30.212
-2.523,1.994,-1.321,-11.292,-20.142,-151.001
-2.765,1.466,-1.507,-34.302,-45.410,-272.461
-2.793,0.717,-1.426,-17.395,-80.505,-383.728
-2.723,0.198,-1.173,28.564,-119.934,-476.807
-2.526,-0.377,-0.607,78.857,-159.302,-554.138
-2.105,-1.198,-0.039,109.253,-189.087,-616.150
-1.267,-2.053,0.531,130.859,-200.378,-656.616
0.095,-2.954,1.235,145.630,-189.270,-671.265
1.766,-3.797,1.601,144.958,-155.762,-656.006
3.258,-4.000,1.361,129.028,-112.000,-610.352
4.000,-4.000,0.861,109.253,-76.782,-536.926
4.000,-4.000,0.466,97.473,-54.016,-437.500
4.000,-4.000,0.413,96.008,-24.353,-309.082
4.000,-4.000,0.209,100.952,28.076,-164.917
4.000,-4.000,-0.043,98.816,78.613,-25.208
3.991,-3.705,-0.236,89.050,99.854,97.046
3.169,-3.178,-0.362,73.120,92.834,196.655
2.328,-2.683,-0.396,55.298,68.420,277.100
1.576,-2.232,-0.375,40.833,41.016,341.614
0.898,-1.824,-0.356,28.015,19.043,389.038
0.292,-1.437,-0.343,16.846,2.869,421.265
-0.234,-1.079,-0.328,6.897,-9.155,439.209
-0.650,-0.756,-0.217,-4.944,-18.372,445.496
-0.996,-0.368,-0.102,-23.254,-20.264,444.763
-1.253,-0.014,-0.119,-43.884,-10.559,437.439
-1.432,0.200,-0.215,-59.814,4.517,421.265
-1.673,0.462,-0.326,-58.716,18.494,402.039
-2.002,0.805,-0.388,-46.509,30.884,387.512
-2.313,1.110,-0.386,-38.879,45.593,379.333
-2.590,1.430,-0.398,-43.518,62.439,371.399
-2.819,1.684,-0.653,-54.688,74.585,348.816
-2.929,2.067,-1.068,-67.383,69.031,297.485
-2.797,2.322,-1.371,-83.801,34.058,205.872
-2.641,2.268,-1.424,-94.543,-31.372,74.219
-2.490,1.860,-1.224,-78.918,-116.211,-78.735
-2.290,1.168,-0.827,-33.813,-198.181,-227.539
-2.001,0.375,-0.363,22.644,-255.127,-350.647
-1.575,-0.244,0.092,81.360,-275.757,-441.956
-1.017,-0.832,0.537,128.113,-258.850,-505.798
-0.381,-1.391,0.918,153.381,-209.229,-545.166
0.384,-1.801,1.031,157.288,-136.719,-560.852
1.264,-2.124,0.855,137.451,-57.861,-555.359
2.237,-2.562,0.427,101.379,7.568,-531.494
3.113,-2.920,0.002,69.458,46.875,-487.671
3.997,-3.251,-0.188,57.129,59.265,-423.584
4.000,-3.215,-0.335,71.045,61.035,-345.093
4.000,-3.173,-0.311,93.323,70.313,-258.911
4.000,-2.961,-0.483,110.840,79.651,-180.908
3.999,-2.778,-0.600,97.595,69.458,-113.281
3.552,-2.604,-0.651,64.453,39.124,-46.387
3.026,-2.415,-0.627,28.748,-4.761,22.095
2.563,-2.215,-0.486,-4.517,-50.903,92.957
2.049,-2.011,-0.297,-32.410,-84.839,162.231
1.682,-1.735,-0.144,-53.650,-97.961,225.769
1.292,-1.416,-0.109,-65.063,-92.896,275.452
0.935,-1.148,-0.135,-74.402,-79.651,309.143
0.661,-0.937,-0.178,-82.581,-66.711,329.468
0.434,-0.780,-0.193,-86.182,-57.922,341.187
0.230,-0.673,-0.165,-84.656,-51.331,348.022
0.048,-0.604,-0.105,-81.665,-43.457,352.661
-0.114,-0.543,-0.024,-77.393,-33.997,357.239
-0.261,-0.463,0.049,-71.960,-22.034,362.244
-0.452,-0.392,0.100,-65.857,-7.507,366.821
-0.682,-0.329,0.134,-59.387,9.827,371.765
-0.936,-0.262,0.158,-50.842,30.823,379.395
-1.224,-0.189,0.162,-41.443,54.626,392.029
-1.489,-0.048,0.086,-33.936,80.994,410.583
-1.937,0.216,0.074,-27.344,109.070,432.922
-2.469,0.661,0.071,-23.499,140.015,447.998
-2.840,1.243,-0.106,-31.860,171.875,436.646
-2.923,1.843,-0.475,-58.533,193.176,381.165
-2.714,2.580,-1.006,-105.835,192.444,272.644
-2.364,3.089,-1.638,-170.410,156.006,109.497
-2.256,2.581,-1.548,-228.577,74.463,-95.947
-2.336,1.613,-1.344,-224.731,-29.480,-300.781
-2.273,0.736,-1.091,-152.649,-127.502,-464.905
-1.946,-0.048,-0.798,-50.232,-202.454,-581.543
-1.413,-0.750,-0.373,49.744,-247.498,-660.522
-0.603,-1.476,0.164,131.348,-261.475,-709.412
0.693,-2.482,0.974,184.204,-246.643,-732.544
2.119,-3.573,1.460,202.515,-203.979,-728.271
3.050,-4.000,0.765,159.546,-149.292,-683.289
4.000,-4.000,0.562,109.131,-111.572,-589.172
4.000,-3.699,0.510,91.125,-68.909,-453.491
4.000,-3.411,0.833,49.255,9.827,-273.193
4.000,-3.195,0.404,48.767,112.061,-91.248
3.986,-2.566,-0.284,80.017,183.411,49.438
3.326,-1.946,-0.577,91.858,202.576,141.785
2.721,-1.549,-0.677,83.557,182.312,196.960
2.194,-1.303,-0.715,63.477,139.221,230.469
1.729,-1.129,-0.664,35.339,86.304,256.348
1.341,-0.992,-0.588,7.812,36.682,279.846

0.940,-0.249,-0.725,9.644,-13.672,-6.104
0.935,-0.186,-0.640,11.658,-16.541,2.502
0.901,-0.139,-0.649,6.592,-12.451,12.085
0.917,-0.165,-0.716,-0.549,-7.935,16.724
0.961,-0.234,-0.785,2.747,-6.775,16.724
1.042,-0.302,-0.830,18.860,-7.629,17.944
1.083,-0.283,-0.774,46.143,-6.897,21.545
1.148,-0.346,-0.859,75.989,-0.488,20.691
1.230,-0.401,-0.969,108.826,10.986,17.273
1.280,-0.386,-1.029,142.151,21.790,17.273
1.303,-0.323,-1.019,167.297,26.550,20.264
1.292,-0.270,-1.033,176.941,24.414,23.132
1.264,-0.220,-1.035,172.485,13.794,23.376
1.249,-0.219,-1.144,157.593,-3.845,18.860
1.236,-0.219,-1.143,132.996,-29.175,11.963
1.206,-0.254,-1.183,109.436,-57.190,5.005
1.005,-0.504,-1.232,88.989,-85.876,0.061
1.184,-0.347,-1.144,88.440,-114.563,4.639
1.374,-0.160,-1.042,109.985,-135.254,4.944
1.267,-0.269,-1.024,117.859,-143.677,-7.935
1.099,-0.359,-1.022,105.469,-142.700,-15.381
1.023,-0.353,-1.057,95.459,-137.024,-11.536
0.935,-0.418,-0.962,92.957,-134.216,-1.526
0.836,-0.419,-0.828,113.220,-135.986,12.207
0.701,-0.394,-0.736,153.748,-137.146,28.198
0.550,-0.344,-0.637,193.970,-137.207,45.593
0.424,-0.275,-0.507,226.440,-136.536,63.232
0.340,-0.224,-0.304,261.963,-134.766,78.430
0.233,-0.139,-0.127,294.373,-131.165,90.942
0.125,-0.002,0.052,317.383,-126.343,100.586
0.076,0.061,0.302,327.759,-120.300,105.835
0.073,0.118,0.598,317.383,-113.037,109.375
0.028,0.195,0.842,291.931,-104.553,114.258
-0.073,0.286,0.973,258.057,-94.666,121.033
-0.213,0.358,1.000,222.473,-82.886,128.296
-0.402,0.445,1.046,189.880,-69.336,133.545
-0.569,0.634,1.161,166.199,-53.162,133.545
-0.688,0.725,1.328,156.494,-30.151,126.526
-0.810,0.779,1.517,161.377,2.686,116.638
-0.956,0.902,1.717,172.913,48.218,108.521
-1.054,1.133,1.879,179.504,105.896,99.915
-1.117,1.326,1.936,166.260,170.898,79.773
-1.214,1.380,1.865,131.287,235.901,44.861
-1.318,1.336,1.601,83.496,293.091,1.465
-1.381,1.168,1.230,24.536,335.571,-41.748
-1.371,0.947,0.810,-38.940,357.727,-80.078
-1.316,0.739,0.385,-94.360,362.122,-109.253
-1.208,0.581,0.003,-134.338,356.323,-128.601
-1.006,0.436,-0.350,-155.823,347.168,-139.404
-0.784,0.355,-0.691,-161.804,338.928,-143.372
-0.479,0.401,-0.964,-158.203,333.618,-143.188
-0.131,0.350,-1.307,-165.833,331.726,-143.066
0.275,0.377,-1.856,-198.486,329.468,-150.146
0.652,0.167,-2.706,-258.179,315.735,-180.298
0.977,-0.462,-3.907,-319.031,270.935,-237.183
1.611,-1.423,-4.000,-333.801,174.622,-300.720
2.372,-2.234,-4.000,-294.617,43.945,-336.548
2.537,-3.324,-4.000,-202.454,-81.665,-336.731
3.351,-2.895,-3.980,-69.336,-175.964,-292.725
4.000,-2.600,-2.966,20.874,-225.647,-227.112
4.000,-2.470,-2.003,69.153,-234.314,-158.386
3.457,-2.661,-1.500,95.947,-210.205,-74.707
2.856,-2.242,-1.295,96.497,-179.382,41.992
2.397,-1.574,-1.227,85.999,-157.898,159.729
1.681,-1.111,-1.321,76.050,-150.330,243.347
1.002,-0.729,-1.339,68.970,-158.508,297.363
0.459,-0.358,-1.230,70.190,-177.551,329.041
-0.008,-0.010,-1.035,79.346,-199.219,336.243
-0.356,0.248,-0.818,83.984,-216.675,320.801
-0.638,0.392,-0.627,79.102,-228.455,289.429
-0.836,0.425,-0.408,70.618,-236.511,250.854
-1.021,0.404,-0.174,60.791,-242.676,212.769
-1.192,0.390,0.123,49.683,-248.169,181.152
-1.339,0.420,0.439,37.781,-252.563,157.288
-1.468,0.473,0.794,27.954,-253.540,139.160
-1.581,0.532,1.212,23.560,-246.826,123.840
-1.685,0.604,1.721,25.757,-226.013,110.168
-1.776,0.764,2.246,32.043,-180.115,101.196
-1.849,1.076,2.624,28.931,-104.431,94.604
-1.942,1.338,2.722,10.010,-3.662,77.087
-2.012,1.409,2.393,-23.804,110.901,36.987
-2.030,1.342,1.907,-50.476,222.290,-24.414
-1.972,1.065,1.279,-73.914,314.331,-95.581
-1.796,0.651,0.566,-109.680,374.329,-158.081
-1.492,0.165,-0.155,-151.184,394.653,-198.486
-1.088,-0.245,-0.822,-181.030,380.615,-208.801
-0.663,-0.390,-1.280,-180.603,343.201,-190.735
-0.167,-0.263,-1.437,-160.095,304.077,-160.095
0.444,-0.086,-1.552,-156.006,289.062,-139.526
1.139,-0.124,-1.777,-178.711,294.739,-146.240
1.549,-0.411,-2.543,-213.013,305.786,-179.443
1.938,-0.921,-3.621,-231.628,291.748,-222.839
2.558,-1.557,-4.000,-213.013,230.408,-253.601
3.044,-1.940,-4.000,-157.471,131.042,-248.901
3.411,-2.114,-3.737,-92.468,26.489,-206.055
3.497,-2.083,-3.117,-44.556,-55.969,-138.916
3.405,-1.951,-2.524,-14.404,-104.492,-63.538
3.097,-1.748,-2.087,7.751,-120.178,8.728
2.657,-1.473,-1.879,30.090,-115.540,75.256
2.168,-1.165,-1.779,51.086,-108.826,132.446
1.632,-0.810,-1.723,70.190,-112.915,176.819
1.228,-0.555,-1.469,81.787,-133.118,206.116
0.822,-0.257,-1.300,86.609,-154.968,220.459
0.539,-0.051,-1.115,83.191,-175.781,221.558
0.319,0.075,-1.006,75.073,-195.007,211.731
0.154,0.103,-0.917,65.979,-213.501,196.106
0.017,0.078,-0.816,58.716,-233.643,181.335
-0.108,0.020,-0.681,53.284,-254.028,171.875
-0.261,0.010,-0.521,49.438,-272.888,169.067
-0.411,0.059,-0.321,45.349,-288.757,168.823
-0.515,0.117,-0.093,38.635,-298.584,164.673
-0.584,0.154,0.143,28.992,-300.232,154.236
-0.657,0.134,0.348,19.531,-292.969,141.052
-0.753,0.074,0.553,16.663,-277.405,131.470
-0.881,0.011,0.799,26.306,-254.944,133.179
-1.082,-0.007,1.130,48.523,-224.365,150.269
-1.362,0.116,1.612,75.073,-182.861,182.495
-1.661,0.526,2.306,92.041,-124.939,224.731
-1.910,1.162,2.569,71.777,-42.175,256.897
-2.038,1.639,2.661,17.944,62.561,250.061
-2.045,1.838,2.409,-25.818,178.101,189.392
-2.284,1.715,1.898,-68.909,287.903,92.407
-2.259,1.475,1.265,-122.742,373.657,-15.625
-2.097,1.122,0.491,-175.049,426.636,-120.300
-1.989,0.501,-0.362,-226.990,444.580,-211.792
-1.595,0.007,-1.027,-265.198,420.837,-278.748
-1.035,-0.380,-1.686,-280.029,372.009,-327.148
-0.314,-0.628,-2.230,-278.198,307.983,-351.379
0.585,-0.818,-2.514,-266.174,239.075,-348.877
1.227,-0.889,-2.593,-251.404,181.274,-326.477
1.757,-0.907,-2.500,-229.919,142.273,-296.875
2.197,-1.198,-2.369,-205.994,128.784,-264.465
2.384,-1.468,-2.299,-156.372,139.282,-223.633
2.510,-1.501,-2.334,-77.820,169.067,-172.485
2.499,-1.325,-2.378,-5.920,193.848,-109.314
2.319,-0.885,-2.454,57.190,199.524,-50.293
1.970,-0.497,-2.343,85.754,177.734,-12.756
1.692,-0.329,-2.051,78.552,125.671,-0.122
1.541,-0.299,-1.737,62.683,62.561,1.587
1.406,-0.263,-1.527,39.185,11.963,8.301
1.344,-0.318,-1.248,9.155,-24.536,22.522
1.206,-0.156,-1.158,-10.132,-44.189,44.861
1.036,-0.043,-1.123,-24.170,-51.941,58.838
0.882,-0.034,-1.079,-34.790,-58.960,61.707
0.770,-0.016,-1.051,-36.194,-66.895,62.317
0.706,0.000,-0.984,-32.227,-75.439,64.209
0.643,0.021,-0.892,-25.330,-81.787,66.711
0.620,0.042,-0.796,-14.954,-83.862,68.726
0.571,0.063,-0.717,-4.211,-80.017,70.679

0.455,0.108,-0.452,-106.995,-147.583,183.533
0.341,0.226,-0.437,-122.253,-156.921,177.856
0.299,0.211,-0.463,-137.634,-163.269,161.865
0.352,0.219,-0.404,-121.460,-185.425,147.156
0.311,0.235,-0.123,-103.882,-213.074,143.188
0.262,0.244,0.105,-113.831,-217.285,144.470
0.243,0.204,0.125,-138.794,-204.163,147.888
0.240,0.178,0.076,-156.128,-194.275,153.015
0.149,0.236,0.066,-159.302,-189.575,158.325
-0.041,0.412,0.100,-153.076,-180.908,161.621
-0.304,0.731,0.135,-136.475,-165.283,156.616
-0.609,1.188,0.159,-108.887,-141.235,136.475
-0.862,1.487,0.195,-74.219,-109.314,98.328
-1.092,1.695,0.272,-33.447,-69.092,47.119
-1.292,1.851,0.230,2.258,-19.165,-7.568
-1.422,1.910,0.122,23.132,31.494,-60.303
-1.467,1.903,0.018,32.471,72.266,-112.000
-1.439,1.706,-0.086,27.832,96.436,-166.199
-1.428,1.305,-0.301,15.686,104.675,-225.403
-1.197,0.739,-0.372,2.808,97.717,-283.325
-0.944,0.198,-0.434,6.409,88.135,-332.397
-0.695,-0.340,-0.518,22.583,87.708,-364.258
-0.505,-0.614,-0.516,56.946,103.394,-377.075
-0.113,-0.552,-0.266,101.257,140.137,-376.953
0.092,-0.647,-0.377,126.221,205.627,-375.671
0.080,-1.121,-0.890,114.441,277.405,-376.282
0.667,-1.815,-1.549,92.712,313.904,-380.310
1.558,-2.460,-2.172,80.261,299.927,-382.935
2.581,-3.426,-2.176,69.519,239.380,-372.559
3.197,-3.730,-1.958,100.769,163.757,-342.468
3.704,-3.842,-1.605,124.939,105.591,-290.283
3.774,-4.000,-1.343,112.732,69.336,-216.553
3.448,-4.000,-1.289,114.990,46.082,-125.854
3.071,-3.924,-1.412,121.216,21.545,-10.986
2.993,-2.952,-1.724,121.338,-15.320,118.225
3.313,-1.586,-1.659,128.967,-75.562,215.027
3.409,-1.117,-1.102,150.269,-145.813,246.094
3.208,-0.655,-0.829,165.405,-201.233,233.765
1.837,-0.565,-0.623,128.479,-229.309,204.163
0.842,-0.623,-0.655,45.166,-223.450,195.007
0.456,-0.463,-1.003,-28.992,-200.134,212.097
0.223,-0.251,-1.281,-52.551,-191.406,219.116
-0.085,-0.169,-1.295,-45.776,-207.581,203.491
-0.312,-0.050,-1.085,-35.889,-238.098,181.763
-0.419,0.069,-0.760,-36.682,-267.456,168.152
-0.529,0.098,-0.473,-54.321,-286.560,165.283
-0.620,0.073,-0.244,-83.130,-294.983,167.664
-0.676,0.097,-0.048,-110.596,-292.419,172.363
-0.830,0.164,0.065,-129.395,-277.954,180.420
-1.111,0.390,0.191,-133.911,-251.709,202.820
-1.441,0.826,0.411,-131.531,-213.440,239.502
-1.792,1.395,0.586,-132.202,-160.400,267.639
-2.133,1.830,0.590,-130.310,-93.323,261.963
-2.352,2.191,0.568,-116.150,-20.325,218.933
-2.444,2.390,0.534,-92.896,49.683,140.381
-2.439,2.370,0.449,-65.125,112.610,35.156
-2.268,2.073,0.324,-40.588,164.307,-86.182
-1.990,1.409,0.112,-24.353,203.552,-207.336
-1.535,0.575,-0.105,-11.414,227.966,-304.565
-0.927,-0.242,-0.355,-0.977,242.798,-359.985
-0.305,-0.867,-0.597,8.240,249.268,-364.685
0.169,-1.128,-0.764,17.151,247.437,-326.172
0.531,-1.210,-0.956,21.362,243.408,-272.766
1.014,-1.299,-1.195,20.142,241.089,-237.488
2.034,-1.570,-1.433,15.869,234.558,-237.610
2.820,-1.973,-1.805,16.357,220.032,-264.343
3.850,-2.598,-2.063,35.461,208.130,-286.743
4.000,-2.997,-2.202,65.063,192.444,-270.508
4.000,-3.134,-2.233,90.088,164.062,-208.496
4.000,-2.993,-2.185,100.952,121.338,-108.032
4.000,-2.460,-2.006,99.792,61.646,4.333
3.747,-1.860,-1.726,84.045,-7.568,94.604
3.108,-1.388,-1.482,56.763,-71.899,147.034
2.543,-1.073,-1.372,25.146,-122.742,172.852
2.022,-0.887,-1.345,3.113,-161.194,187.622
1.632,-0.806,-1.210,-5.493,-191.345,198.242
1.256,-0.724,-1.095,-5.188,-208.679,210.266
0.916,-0.616,-0.987,-2.563,-214.050,224.121
0.601,-0.511,-0.888,-0.793,-214.661,237.732
0.327,-0.422,-0.783,-2.625,-214.905,248.718
0.122,-0.339,-0.705,-10.376,-215.332,258.667
-0.084,-0.286,-0.678,-20.752,-216.309,266.296
-0.288,-0.218,-0.628,-29.053,-219.238,270.935
-0.498,-0.134,-0.507,-34.424,-222.900,273.254
-0.689,0.005,-0.322,-39.001,-225.708,270.752
-0.862,0.167,-0.113,-48.401,-226.196,260.010
-1.030,0.320,0.073,-61.218,-223.206,242.676
-1.225,0.490,0.272,-73.730,-215.271,222.351
-1.428,0.702,0.442,-84.656,-200.500,204.468
-1.641,0.934,0.540,-94.910,-175.842,192.749
-1.845,1.199,0.559,-102.783,-140.686,184.509
-1.998,1.477,0.509,-103.149,-96.436,169.495
-2.088,1.750,0.461,-89.661,-44.495,137.085
-2.118,1.963,0.477,-63.599,10.620,79.956
-2.100,1.966,0.493,-34.241,67.261,-3.296
-1.995,1.721,0.458,-11.963,121.338,-102.051
-1.812,1.270,0.357,0.977,170.166,-199.890
-1.569,0.773,0.213,6.287,212.280,-281.128
-1.240,0.255,0.010,6.470,245.728,-338.745
-0.873,-0.263,-0.284,9.155,271.545,-370.422
-0.446,-0.667,-0.584,16.235,288.086,-374.207
-0.043,-0.879,-0.824,24.536,294.983,-351.013
0.250,-0.906,-1.016,31.494,296.875,-309.326
0.612,-0.915,-1.202,29.602,291.565,-272.583
1.267,-1.155,-1.444,22.156,279.785,-262.573
2.244,-1.430,-1.856,15.869,277.222,-273.560
3.000,-1.908,-2.289,20.447,263.184,-296.570
3.937,-2.437,-2.584,39.185,243.286,-303.467
4.000,-2.784,-2.806,53.162,214.844,-256.653
4.000,-2.686,-2.702,75.317,167.908,-159.546
4.000,-2.276,-2.422,85.815,107.666,-38.147
4.000,-1.757,-2.160,81.909,49.316,66.895
3.643,-1.268,-1.992,73.364,-2.625,136.902
3.020,-1.013,-1.773,62.744,-60.425,178.528
2.323,-0.771,-1.639,60.974,-111.023,204.163
1.867,-0.727,-1.410,59.204,-145.325,221.252
1.336,-0.553,-1.282,67.688,-158.142,245.911
0.846,-0.371,-1.125,77.271,-165.039,261.780
0.431,-0.194,-1.020,80.383,-171.631,267.090
0.110,-0.068,-0.967,71.411,-182.495,263.000
-0.147,-0.005,-0.902,56.641,-201.538,251.831
-0.317,0.046,-0.802,40.405,-227.417,239.441
-0.432,0.108,-0.691,23.499,-253.845,229.736
-0.496,0.168,-0.557,7.751,-275.940,220.642
-0.546,0.238,-0.404,-5.981,-291.748,210.205
-0.606,0.317,-0.241,-15.625,-299.805,196.045
-0.681,0.374,-0.069,-21.118,-300.232,177.612
-0.771,0.413,0.091,-23.376,-293.945,157.959
-0.881,0.452,0.239,-23.987,-281.982,143.738
-0.987,0.523,0.363,-25.208,-263.733,142.639
-1.161,0.666,0.450,-31.189,-239.136,160.461
-1.386,0.841,0.547,-39.551,-209.106,192.261
-1.606,1.073,0.599,-48.157,-172.546,224.976
-1.790,1.366,0.588,-57.190,-128.967,241.089
-1.882,1.690,0.541,-62.256,-79.468,223.267
-1.864,1.890,0.486,-58.228,-25.330,161.377
-1.784,1.959,0.444,-43.335,29.663,61.096
-1.668,1.851,0.425,-20.447,85.754,-62.500
-1.549,1.549,0.355,3.540,143.127,-192.566
-1.423,1.118,0.223,17.090,198.242,-312.195
-1.246,0.646,-0.001,20.203,244.324,-410.095
-0.963,0.062,-0.252,22.522,277.466,-483.154
-0.500,-0.696,-0.615,30.579,296.448,-528.809
0.294,-1.485,-0.975,46.265,296.997,-543.640
1.166,-1.887,-1.198,55.176,274.353,-522.888
1.759,-1.609,-1.083,59.326,227.173,-467.346
2.137,-1.422,-0.913,56.946,162.720,-374.512
2.196,-1.364,-0.899,22.827,94.666,-256.653
2.206,-1.145,-0.850,-15.625,40.161,-163.513

0.440,0.090,-1.398,41.443,-88.684,4.639
0.477,0.382,-1.185,25.818,-94.116,26.550
0.402,0.506,-1.255,3.357,-98.022,40.161
0.302,0.504,-1.251,-17.822,-104.614,40.710
0.324,0.491,-1.361,-24.902,-116.211,27.100
0.430,0.368,-1.495,-27.039,-131.287,9.827
0.546,0.244,-1.505,-23.193,-150.452,0.854
0.616,0.163,-1.501,-21.301,-169.556,4.700
0.700,0.089,-1.612,-29.846,-186.279,19.104
0.725,0.073,-1.659,-36.987,-205.933,37.964
0.715,0.044,-1.611,-39.795,-227.966,56.641
0.711,-0.000,-1.535,-43.335,-247.437,72.388
0.704,-0.070,-1.526,-48.401,-262.573,86.670
0.671,-0.176,-1.518,-49.988,-276.001,101.624
0.615,-0.210,-1.452,-44.434,-287.354,118.958
0.523,-0.258,-1.356,-43.762,-295.349,135.925
0.395,-0.246,-1.054,-44.556,-300.781,148.437
0.165,-0.212,-1.008,-36.621,-300.537,157.776
0.043,-0.086,-0.792,-34.058,-299.194,170.593
-0.058,0.153,-0.605,-24.414,-294.678,185.181
-0.290,-0.129,-0.298,-18.860,-288.025,195.435
-0.379,0.391,-0.399,-3.296,-275.818,208.618
-0.396,0.490,-0.256,-0.977,-266.296,213.623
-0.502,0.468,-0.140,-5.798,-263.245,201.965
-0.622,0.492,-0.010,-8.789,-261.902,187.988
-0.679,0.458,0.132,-12.695,-258.728,177.429
-0.714,0.478,0.231,-12.390,-251.404,174.194
-0.789,0.535,0.331,-9.277,-238.586,177.673
-0.938,0.604,0.480,-4.333,-219.299,187.988
-1.240,0.838,0.563,0.549,-190.857,206.360
-1.685,1.429,0.683,2.930,-153.198,226.562
-2.078,2.270,0.708,2.808,-107.727,223.572
-2.384,2.852,0.609,-16.907,-61.646,165.100
-2.670,3.059,0.476,-61.462,-18.494,50.476
-2.778,2.911,0.256,-101.196,27.893,-98.267
-2.780,2.137,-0.059,-119.202,74.158,-256.958
-2.703,1.137,-0.319,-115.417,109.985,-392.517
-2.532,0.189,-0.444,-88.745,133.240,-485.901
-2.197,-0.533,-0.539,-50.293,150.879,-539.001
-1.777,-1.060,-0.603,-17.700,165.527,-560.120
-1.373,-1.336,-0.745,2.991,180.115,-556.396
-0.904,-1.498,-1.007,15.564,193.176,-541.077
-0.250,-1.812,-1.154,22.034,199.219,-530.640
0.612,-2.334,-1.263,11.353,194.885,-528.564
1.724,-2.950,-1.584,-9.460,183.655,-523.010
2.925,-3.582,-1.959,-15.686,174.500,-507.935
3.984,-4.000,-2.201,-1.892,155.457,-469.482
4.000,-4.000,-2.307,35.706,136.902,-393.860
4.000,-4.000,-2.330,77.332,114.868,-288.635
4.000,-3.731,-2.315,105.408,81.665,-165.527
4.000,-3.195,-2.249,110.596,30.823,-38.086
3.984,-2.639,-2.100,95.642,-36.011,75.195
3.164,-2.120,-1.889,71.899,-106.873,165.955
2.320,-1.668,-1.635,46.570,-168.945,235.962
1.548,-1.301,-1.420,23.071,-216.064,287.170
0.946,-0.996,-1.248,5.859,-248.718,322.754
0.458,-0.798,-1.073,-5.493,-271.545,342.957
0.065,-0.689,-0.933,-16.602,-288.940,353.821
-0.203,-0.635,-0.779,-32.043,-303.833,361.938
-0.433,-0.655,-0.630,-52.307,-316.101,371.643
-0.658,-0.669,-0.454,-74.829,-321.960,387.390
-0.929,-0.607,-0.287,-97.961,-316.650,410.095
-1.299,-0.438,-0.166,-119.629,-298.828,432.312
-1.720,-0.114,-0.030,-129.578,-270.081,441.284
-2.075,0.358,0.163,-123.718,-226.257,433.899
-2.297,0.863,0.306,-111.450,-158.447,415.588
-2.571,1.387,0.282,-93.811,-67.383,387.512
-3.009,2.043,0.072,-75.867,28.137,347.046
-3.339,2.683,-0.245,-62.744,102.234,281.616
-3.495,3.142,-0.522,-56.824,135.376,172.119
-3.446,3.240,-0.667,-52.368,133.057,14.771
-3.224,2.726,-0.683,-46.814,114.868,-168.640
-2.908,1.754,-0.642,-40.344,96.924,-343.994
-2.542,0.646,-0.571,-32.715,85.938,-480.469
-2.146,-0.357,-0.520,-26.611,84.595,-563.660
-1.619,-1.145,-0.536,-17.883,94.849,-601.990
-0.904,-1.747,-0.596,-2.563,113.342,-607.117
-0.009,-2.261,-0.682,14.587,133.728,-585.388
1.009,-2.464,-0.774,31.677,152.832,-541.260
2.108,-2.234,-0.912,37.781,171.875,-486.206
2.946,-2.214,-1.163,30.334,188.965,-443.542
3.592,-2.649,-1.339,18.799,189.636,-418.945
4.000,-3.075,-1.589,29.602,181.824,-384.705
4.000,-3.363,-1.731,63.904,169.556,-328.247
4.000,-3.348,-1.804,102.295,150.757,-245.239
4.000,-3.153,-1.900,123.840,122.009,-135.132
4.000,-3.022,-1.919,119.202,75.073,-13.733
3.519,-2.404,-1.901,105.774,19.165,123.718
2.630,-1.688,-1.714,85.205,-40.405,235.779
1.876,-1.151,-1.520,59.570,-96.313,300.171
1.276,-0.858,-1.402,34.241,-140.808,326.965
0.805,-0.727,-1.310,14.709,-176.025,334.045
0.429,-0.657,-1.223,1.770,-205.688,337.158
0.135,-0.601,-1.117,-8.057,-232.544,342.163
-0.108,-0.547,-0.980,-17.273,-257.019,350.586
-0.301,-0.535,-0.827,-27.893,-278.198,361.206
-0.474,-0.590,-0.673,-40.710,-292.786,373.230
-0.633,-0.626,-0.534,-53.040,-299.316,387.756
-0.825,-0.596,-0.401,-62.012,-297.729,404.541
-1.052,-0.542,-0.270,-62.744,-288.208,417.725
-1.337,-0.519,-0.151,-54.993,-273.865,423.584
-1.681,-0.455,0.004,-39.001,-256.348,424.744
-2.193,-0.150,0.283,-20.996,-231.445,430.725
-2.755,0.509,0.724,-12.756,-187.683,446.716
-2.960,1.446,0.960,-24.048,-118.469,455.872
-2.969,2.416,0.937,-65.735,-35.889,421.631
-3.229,2.871,0.677,-138.000,43.396,321.777
-3.359,3.134,0.232,-211.792,108.398,175.293
-3.264,2.941,-0.273,-245.605,145.508,3.052
-3.094,2.435,-0.682,-233.948,154.358,-179.932
-2.870,1.701,-0.880,-185.181,146.423,-353.455
-2.543,0.881,-0.923,-113.464,133.057,-498.291
-2.254,0.176,-0.859,-43.518,124.695,-604.797
-1.983,-0.490,-0.902,1.953,126.953,-679.687
-1.524,-1.193,-0.849,20.935,131.714,-731.995
-0.801,-2.230,-0.918,25.452,136.597,-764.343
0.241,-3.075,-1.004,19.348,140.442,-763.672
1.415,-3.285,-1.178,12.268,140.747,-721.008
2.261,-3.187,-1.437,-2.686,138.367,-643.433
2.774,-3.159,-1.357,-9.827,128.906,-539.612
2.684,-2.832,-1.473,17.883,128.540,-413.940
2.975,-2.339,-1.506,56.458,145.447,-289.062
2.705,-1.761,-1.385,92.468,159.119,-200.134
2.506,-1.331,-1.250,107.910,161.316,-158.325
2.418,-1.097,-1.158,104.004,154.114,-149.109
2.232,-0.991,-1.115,83.984,141.296,-151.428
2.022,-0.914,-1.097,55.542,122.498,-145.142
1.750,-0.825,-1.100,27.771,96.741,-130.249
1.604,-1.003,-1.089,2.686,63.599,-114.380
1.539,-1.320,-1.187,-9.033,35.278,-87.708
1.488,-1.325,-1.160,-7.385,7.202,-44.800
1.375,-1.126,-1.038,-2.197,-18.799,12.573
1.160,-0.858,-0.912,-3.540,-40.405,74.524
0.901,-0.573,-0.832,-13.916,-57.495,125.671
0.694,-0.348,-0.733,-29.785,-70.923,155.457
0.577,-0.192,-0.642,-44.678,-78.979,164.185
0.524,-0.114,-0.567,-53.955,-77.881,158.508
0.494,-0.078,-0.528,-58.167,-65.002,146.240
0.460,-0.044,-0.542,-58.105,-47.241,132.385
0.444,-0.021,-0.557,-53.162,-30.457,118.469
0.445,-0.001,-0.592,-43.945,-16.052,107.849
0.442,0.034,-0.606,-32.898,-5.432,100.281
0.428,0.087,-0.594,-20.447,2.930,94.543
0.414,0.132,-0.586,-8.667,10.681,88.501
0.407,0.191,-0.568,0.549,17.212,80.261
0.415,0.230,-0.557,5.066,22.888,69.214
0.425,0.229,-0.581,6.470,26.855,55.298
0.431,0.213,-0.590,6.836,28.259,40.161
0.437,0.195,-0.591,5.859,27.527,26.306

0.924,-0.261,-0.680,70.740,7.263,-2.441
0.914,-0.333,-0.748,75.928,9.460,3.479
1.024,-0.217,-0.727,81.360,8.911,12.756
1.053,-0.201,-0.786,87.280,11.536,19.104
1.005,-0.211,-0.772,84.229,15.930,23.193
1.006,-0.177,-0.806,81.360,21.057,25.146
1.006,-0.186,-0.842,87.402,24.170,23.254
1.001,-0.134,-0.876,98.450,24.841,18.433
1.017,-0.025,-0.770,107.605,24.048,12.085
1.028,-0.005,-0.874,106.873,25.757,0.854
1.098,-0.186,-1.139,96.619,23.865,-13.062
1.269,-0.316,-1.293,103.333,7.812,-24.719
1.288,-0.395,-1.250,126.038,-17.761,-32.715
1.414,-0.377,-1.179,149.109,-43.213,-35.278
1.437,-0.410,-1.189,157.471,-61.279,-35.095
1.479,-0.460,-1.204,154.785,-75.439,-31.616
1.421,-0.521,-1.211,140.991,-90.637,-26.611
1.275,-0.519,-1.123,121.643,-109.375,-20.325
1.350,-0.513,-1.207,103.455,-129.822,-15.930
1.344,-0.636,-1.067,106.018,-153.564,-14.526
1.188,-0.574,-0.894,137.207,-174.011,-6.592
1.304,-0.117,-0.720,156.555,-182.373,13.916
1.247,-0.032,-0.418,147.278,-177.673,27.344
1.030,-0.112,-0.315,145.264,-157.898,35.217
0.812,-0.093,-0.330,153.748,-130.371,44.250
0.656,0.006,-0.356,168.335,-104.431,50.537
0.495,0.089,-0.397,187.988,-86.426,50.659
0.344,0.051,-0.383,207.092,-79.529,47.424
0.217,-0.000,-0.375,225.769,-82.397,48.096
0.031,0.011,-0.412,249.878,-93.872,55.115
-0.070,0.048,-0.073,274.536,-113.464,63.416
-0.094,0.115,0.308,280.029,-128.174,70.679
-0.119,0.173,0.604,257.019,-131.409,76.172
-0.234,0.213,0.793,212.280,-125.488,81.360
-0.372,0.248,0.972,169.922,-113.037,86.792
-0.546,0.344,1.235,142.456,-91.553,93.323
-0.747,0.571,1.490,132.935,-54.504,97.839
-0.959,0.797,1.739,135.315,-3.052,95.459
-1.182,0.976,1.954,144.043,60.669,89.172
-1.431,1.248,2.046,153.076,132.629,80.811
-1.656,1.504,2.068,151.611,202.515,62.317
-1.865,1.629,1.983,128.296,263.916,28.076
-2.040,1.560,1.697,83.740,316.956,-17.212
-2.118,1.342,1.262,28.564,358.215,-65.002
-2.074,1.060,0.727,-27.954,383.606,-105.957
-1.945,0.770,0.182,-83.374,391.907,-130.920
-1.755,0.554,-0.354,-128.723,387.817,-140.320
-1.556,0.460,-0.941,-162.231,379.456,-143.555
-1.247,0.413,-1.485,-187.073,369.690,-153.625
-0.857,0.362,-2.268,-215.759,355.713,-178.833
-0.347,0.022,-3.250,-254.456,326.111,-228.943
0.354,-0.781,-4.000,-284.485,266.846,-303.528
1.150,-1.882,-4.000,-277.161,174.622,-380.493
2.141,-2.820,-4.000,-226.379,62.683,-430.481
3.267,-3.535,-3.986,-153.992,-38.391,-432.312
3.879,-4.000,-3.341,-80.322,-92.346,-382.874
4.000,-4.000,-2.826,-6.531,-97.168,-286.926
4.000,-3.939,-2.521,54.810,-84.839,-165.222
3.717,-3.432,-2.281,80.627,-87.402,-43.457
3.082,-2.839,-2.100,74.768,-111.267,67.444
2.439,-2.226,-1.869,55.664,-147.034,158.569
1.838,-1.745,-1.665,37.292,-180.542,226.013
1.255,-1.296,-1.499,26.245,-203.552,272.156
0.654,-0.782,-1.371,25.452,-215.210,294.800
0.352,-0.562,-1.313,22.644,-226.746,297.546
0.017,-0.330,-1.260,15.015,-250.793,304.382
-0.320,-0.160,-1.122,7.690,-277.344,304.749
-0.538,-0.068,-0.910,-0.122,-303.284,294.678
-0.708,-0.021,-0.640,-12.634,-323.730,286.743
-0.830,0.011,-0.378,-29.785,-334.900,281.677
-0.966,-0.019,-0.146,-47.852,-335.083,277.039
-1.188,-0.062,0.064,-59.448,-322.266,274.658
-1.484,0.080,0.369,-48.828,-296.387,272.461
-1.681,0.359,0.766,-10.315,-254.089,264.038
-1.776,0.622,1.212,41.077,-193.665,247.375
-1.927,0.893,1.742,95.459,-115.967,231.323
-2.135,1.245,2.270,144.226,-26.733,220.947
-2.281,1.697,2.686,167.480,65.430,207.458
-2.349,2.059,2.821,144.958,155.762,172.607
-2.409,2.120,2.560,78.796,238.342,108.521
-2.428,1.869,1.966,-11.169,302.429,23.010
-2.363,1.424,1.163,-103.027,338.257,-64.758
-2.177,0.904,0.432,-189.148,338.440,-139.099
-1.939,0.458,-0.269,-251.221,313.782,-195.984
-1.540,0.075,-0.821,-278.564,280.457,-236.328
-0.934,-0.082,-1.271,-278.748,252.197,-261.475
-0.238,-0.146,-1.738,-270.264,238.342,-280.029
0.565,-0.444,-2.223,-260.010,233.215,-305.603
1.331,-1.025,-2.773,-241.638,231.079,-345.947
2.122,-1.729,-3.414,-205.994,216.125,-375.000
2.902,-2.333,-3.693,-156.616,171.509,-376.343
3.578,-2.653,-3.602,-101.685,104.370,-346.069
3.961,-2.891,-3.293,-53.345,40.527,-292.419
4.000,-2.973,-2.918,-21.790,-8.057,-210.022
3.996,-2.773,-2.601,1.587,-46.936,-105.225
3.644,-2.399,-2.240,14.709,-80.322,-8.057
3.164,-1.980,-1.941,21.912,-105.530,72.815
2.634,-1.598,-1.685,26.306,-122.803,137.878
2.063,-1.269,-1.475,29.968,-133.911,191.101
1.599,-0.954,-1.308,34.912,-141.541,232.971
1.132,-0.661,-1.194,41.748,-146.484,260.986
0.719,-0.384,-1.102,48.706,-152.283,276.001
0.381,-0.167,-1.032,51.453,-164.062,277.771
0.137,-0.057,-0.984,47.791,-182.556,267.456
-0.033,-0.070,-0.885,41.077,-205.566,252.258
-0.204,-0.101,-0.743,36.072,-228.455,241.821
-0.381,-0.065,-0.578,29.053,-248.535,239.563
-0.522,0.015,-0.399,17.578,-265.015,240.662
-0.611,0.085,-0.243,1.526,-275.330,237.549
-0.706,0.090,-0.100,-12.573,-277.527,227.600
-0.836,0.111,0.139,-16.968,-270.874,213.196
-0.889,0.187,0.347,-11.536,-251.648,196.655
-0.879,0.241,0.496,0.183,-219.238,179.993
-0.908,0.260,0.629,18.555,-177.307,168.945
-1.011,0.241,0.784,47.974,-129.211,168.884
-1.242,0.220,1.081,92.163,-76.843,182.678
-1.608,0.338,1.587,150.818,-19.653,212.646
-1.976,0.745,2.226,208.252,45.837,254.944
-2.125,1.551,2.829,230.957,127.197,284.058
-2.190,2.230,3.164,195.801,229.370,257.507
-2.365,2.285,2.737,94.116,343.689,164.978
-2.505,1.857,1.986,-39.429,434.814,43.579
-2.529,1.338,1.053,-168.091,476.196,-70.679
-2.488,0.789,0.258,-276.367,467.224,-169.373
-2.319,0.197,-0.467,-360.352,415.588,-252.197
-1.967,-0.325,-1.089,-410.522,333.984,-314.209
-1.468,-0.725,-1.610,-417.725,243.652,-355.103
-0.811,-0.855,-2.016,-390.564,165.161,-373.901
0.156,-0.846,-2.176,-370.056,116.211,-377.625
1.259,-0.965,-2.039,-384.094,104.004,-384.216
1.809,-1.684,-2.429,-377.014,120.239,-422.791
1.973,-2.638,-3.089,-318.176,141.113,-457.214
2.783,-3.207,-3.417,-212.341,159.363,-434.875
3.298,-3.179,-3.389,-74.707,161.621,-335.022
3.235,-2.747,-3.057,67.993,153.503,-208.008
3.001,-2.127,-2.484,156.067,137.512,-86.487
2.649,-1.500,-2.048,194.641,119.446,8.911
2.207,-1.009,-1.726,191.895,97.229,67.444
1.841,-0.658,-1.499,158.447,67.505,98.450
1.538,-0.424,-1.373,113.403,32.898,113.647
1.259,-0.279,-1.296,66.711,-4.028,122.192
1.015,-0.177,-1.218,25.574,-41.016,128.601
0.811,-0.089,-1.115,-4.333,-74.890,132.812
0.638,-0.015,-1.003,-23.743,-101.501,133.972
0.495,0.059,-0.891,-36.743,-121.399,129.700
0.427,0.061,-0.747,-45.410,-133.972,120.789
0.394,0.076,-0.679,-45.410,-134.094,115.295
0.361,0.090,-0.612,-41.931,-127.625,110.596
0.325,0.111,-0.540,-36.011,-116.394,107.361

0.948,0.152,-0.218,-15.015,-14.893,95.276
0.897,0.214,-0.163,-29.724,-13.672,98.083
0.808,0.278,-0.206,-43.213,-9.399,85.999
0.782,0.242,-0.260,-54.626,-5.310,70.129
0.767,0.186,-0.234,-53.345,-4.822,61.707
0.747,0.213,-0.121,-44.556,-6.348,60.669
0.709,0.249,0.003,-43.640,-6.958,63.232
0.641,0.266,0.010,-56.458,-5.981,65.247
0.522,0.299,-0.029,-71.289,-6.714,66.833
0.366,0.324,-0.118,-79.468,-9.216,66.895
0.160,0.366,-0.220,-76.294,-12.634,65.247
-0.123,0.594,-0.286,-54.260,-14.832,60.364
-0.392,0.911,-0.304,-19.043,-13.123,44.495
-0.732,1.118,-0.351,21.973,-7.019,8.972
-1.053,1.453,-0.427,60.059,5.005,-34.302
-1.196,1.724,-0.278,70.129,27.344,-75.989
-1.313,1.082,-0.150,52.734,58.899,-109.863
-1.231,1.693,-0.414,52.002,89.355,-133.911
-1.349,1.511,-0.457,35.278,101.196,-179.565
-1.479,0.822,-0.608,-1.648,93.384,-250.183
-1.364,0.172,-0.766,-14.893,75.989,-311.584
-1.025,-0.351,-0.753,-4.700,61.157,-348.450
-0.623,-0.707,-0.622,16.846,57.068,-359.375
-0.337,-0.832,-0.465,39.185,72.327,-352.051
-0.078,-0.987,-0.522,49.133,103.638,-340.698
0.189,-1.218,-0.716,50.598,137.268,-336.060
0.517,-1.612,-0.748,64.514,162.292,-336.365
1.248,-1.949,-0.787,76.843,176.086,-330.872
2.093,-2.266,-0.914,72.754,185.181,-325.562
2.777,-2.643,-1.072,51.575,174.011,-313.477
3.459,-3.072,-1.188,31.616,145.813,-291.748
4.000,-3.502,-1.233,24.109,111.877,-258.911
4.000,-3.683,-1.173,22.644,71.289,-195.374
4.000,-3.459,-1.033,19.104,25.879,-102.905
4.000,-3.067,-0.942,-0.366,-14.648,-1.587
3.781,-2.717,-0.931,-27.405,-47.241,86.975
3.235,-2.388,-0.940,-49.011,-73.120,156.555
2.677,-2.080,-0.936,-61.340,-90.149,211.182
2.133,-1.780,-0.919,-62.622,-96.130,255.005
1.628,-1.522,-0.930,-56.885,-92.590,288.635
1.172,-1.345,-0.997,-50.598,-86.548,310.547
0.766,-1.217,-1.093,-49.683,-88.318,326.111
0.417,-1.083,-1.149,-53.894,-103.516,341.492
0.098,-0.967,-1.137,-61.646,-128.601,356.934
-0.154,-0.860,-1.070,-73.181,-157.166,369.507
-0.327,-0.766,-0.939,-86.365,-182.312,378.906
-0.472,-0.675,-0.782,-99.243,-197.632,386.658
-0.625,-0.552,-0.627,-110.168,-201.965,392.822
-0.781,-0.436,-0.478,-116.211,-198.364,393.433
-0.940,-0.297,-0.307,-118.225,-188.171,387.451
-1.118,-0.165,-0.146,-116.699,-169.128,377.625
-1.388,0.028,-0.000,-108.765,-137.390,367.554
-1.766,0.350,0.118,-94.055,-88.928,357.178
-2.210,0.797,0.139,-75.195,-25.208,343.506
-2.656,1.417,0.028,-55.176,47.058,321.838
-2.987,2.155,-0.220,-36.133,118.591,280.334
-3.234,2.838,-0.592,-22.400,170.532,201.538
-3.388,3.165,-0.908,-15.442,185.425,75.928
-3.366,2.982,-1.031,-7.507,161.499,-83.069
-3.109,2.333,-0.949,1.831,117.676,-251.953
-2.769,1.382,-0.744,16.235,77.026,-402.771
-2.446,0.418,-0.515,31.677,53.162,-513.123
-2.054,-0.396,-0.344,38.208,47.119,-580.444
-1.562,-1.085,-0.256,33.081,53.650,-613.892
-0.918,-1.793,-0.256,22.278,68.237,-621.155
-0.097,-2.463,-0.343,11.719,85.938,-603.943
0.877,-2.888,-0.553,6.348,102.844,-561.401
1.893,-3.042,-0.777,10.437,115.967,-503.723
3.019,-3.442,-0.983,25.208,123.657,-448.242
3.553,-3.562,-1.184,55.359,125.427,-396.790
4.000,-3.667,-1.218,85.144,131.470,-334.412
4.000,-3.488,-1.281,106.567,142.212,-258.484
4.000,-3.263,-1.327,100.769,135.498,-175.049
4.000,-3.034,-1.337,71.594,109.741,-88.684
3.998,-2.771,-1.389,31.128,71.228,-0.916
3.535,-2.456,-1.382,-4.944,25.330,84.839
2.945,-2.083,-1.289,-27.893,-19.592,158.752
2.331,-1.721,-1.143,-42.419,-57.373,215.576
1.774,-1.405,-1.010,-54.382,-84.595,255.249
1.321,-1.172,-0.932,-65.491,-102.112,281.677
0.966,-1.019,-0.897,-74.158,-112.000,295.898
0.679,-0.919,-0.868,-77.393,-115.845,302.673
0.449,-0.869,-0.824,-76.904,-117.004,307.739
0.255,-0.809,-0.769,-78.796,-119.446,314.209
0.081,-0.748,-0.694,-85.266,-123.779,323.120
-0.033,-0.673,-0.570,-98.694,-128.418,334.656
-0.152,-0.617,-0.493,-119.202,-130.066,348.022
-0.314,-0.580,-0.470,-140.564,-128.113,361.755
-0.461,-0.519,-0.454,-153.625,-125.427,372.986
-0.583,-0.422,-0.410,-153.870,-121.460,379.822
-0.722,-0.319,-0.365,-144.409,-114.685,382.385
-0.883,-0.230,-0.323,-130.554,-105.713,380.676
-1.104,-0.095,-0.278,-117.065,-93.933,377.625
-1.417,0.124,-0.219,-107.849,-75.684,375.244
-1.788,0.471,-0.228,-106.934,-47.302,373.352
-2.093,0.891,-0.344,-117.065,-9.644,368.896
-2.331,1.356,-0.634,-130.920,29.236,352.417
-2.561,1.942,-1.004,-139.038,52.979,305.420
-2.688,2.542,-1.347,-134.583,49.805,210.632
-2.667,2.739,-1.545,-114.929,18.066,64.575
-2.573,2.363,-1.462,-77.454,-35.889,-111.633
-2.370,1.700,-1.174,-23.315,-94.482,-282.349
-2.103,0.992,-0.791,31.677,-135.620,-420.288
-1.856,0.276,-0.444,74.097,-151.733,-518.372
-1.581,-0.375,-0.198,105.103,-146.545,-581.238
-1.128,-0.880,0.091,130.615,-126.160,-619.263
-0.495,-1.498,0.367,143.250,-94.421,-640.503
0.423,-2.373,0.664,134.338,-55.603,-643.982
1.560,-3.165,0.772,123.535,-11.414,-620.544
2.639,-3.480,0.668,134.949,37.354,-565.857
3.209,-3.416,0.589,166.199,98.938,-487.976
3.587,-3.175,0.255,192.444,175.171,-390.076
3.609,-2.785,-0.254,210.632,243.652,-294.067
3.428,-2.317,-0.669,207.703,277.893,-217.896
3.096,-1.946,-1.016,191.589,279.358,-161.194
2.800,-1.600,-1.301,163.452,252.563,-113.037
2.592,-1.445,-1.411,118.286,195.801,-71.838
2.393,-1.311,-1.480,70.496,125.427,-21.851
2.148,-1.177,-1.397,27.405,48.645,24.109
1.893,-1.034,-1.252,1.099,-16.907,59.326
1.683,-0.866,-1.077,-15.564,-63.232,86.121
1.492,-0.720,-0.879,-27.039,-95.459,104.492
1.349,-0.623,-0.694,-37.598,-112.183,117.126
1.272,-0.600,-0.562,-49.133,-115.906,127.869
1.240,-0.649,-0.479,-59.570,-111.816,138.855
1.247,-0.716,-0.452,-60.974,-103.210,151.123
1.223,-0.755,-0.428,-53.894,-91.431,164.368
1.202,-0.770,-0.390,-41.199,-78.430,178.345
1.119,-0.750,-0.344,-25.940,-62.561,192.078
0.990,-0.680,-0.329,-11.047,-44.312,203.186
0.847,-0.567,-0.347,0.854,-27.344,210.754
0.723,-0.457,-0.357,7.568,-16.235,215.576
0.619,-0.379,-0.368,8.362,-10.559,219.421
0.525,-0.317,-0.396,-0.916,-9.399,225.403
0.426,-0.272,-0.440,-16.724,-12.512,235.107
0.318,-0.228,-0.494,-33.386,-20.325,246.582
0.211,-0.208,-0.550,-46.387,-32.166,258.911
0.092,-0.151,-0.560,-53.772,-47.058,274.109
-0.030,-0.040,-0.566,-51.819,-60.181,287.109
-0.133,0.079,-0.538,-48.462,-70.923,288.574
-0.238,0.173,-0.495,-44.373,-79.529,281.372
-0.360,0.236,-0.455,-39.673,-85.510,271.179
-0.512,0.259,-0.426,-34.851,-88.501,262.268
-0.705,0.316,-0.372,-28.076,-87.097,257.568
-0.929,0.540,-0.299,-20.508,-78.369,257.996
-1.131,0.889,-0.241,-17.517,-59.387,260.742
-1.255,1.244,-0.309,-15.747,-33.203,253.601
-1.319,1.619,-0.451,-9.766,-13.367,219.360
-1.335,1.906,-0.531,-0.916,-8.301,147.156

0.824,-0.511,-0.900,52.307,2.991,18.066
0.740,-0.274,-0.942,87.585,6.653,33.142
0.763,-0.023,-0.899,97.107,4.028,44.434
0.750,-0.062,-0.709,75.500,-2.075,39.368
0.843,-0.121,-0.622,60.791,-8.179,26.123
0.856,-0.053,-0.609,49.194,-12.939,16.846
0.804,-0.040,-0.609,29.907,-15.137,16.785
0.814,-0.024,-0.647,9.583,-16.113,21.484
0.795,-0.057,-0.721,-2.441,-18.127,23.254
0.779,-0.051,-0.709,-2.625,-24.841,21.606
0.746,0.004,-0.662,2.930,-34.180,19.470
0.765,-0.035,-0.638,5.554,-42.908,14.587
0.810,-0.066,-0.593,12.512,-50.842,8.301
0.828,-0.004,-0.390,22.888,-56.091,4.089
0.843,-0.000,-0.228,19.470,-54.077,0.671
0.870,-0.089,-0.268,2.136,-45.227,-2.563
0.857,-0.179,-0.449,-13.855,-39.307,-2.869
0.846,-0.186,-0.540,-17.090,-43.579,-0.732
0.813,-0.177,-0.518,-13.550,-55.725,1.465
0.831,-0.124,-0.330,-15.930,-68.970,3.296
0.828,-0.199,-0.460,-28.259,-77.026,5.798
0.927,-0.175,-0.420,-46.387,-85.083,10.620
0.775,-0.488,-0.340,-58.472,-88.501,16.663
0.887,-0.341,-0.385,-51.575,-83.008,29.968
1.411,0.004,-0.457,-22.095,-68.848,42.114
1.540,-0.032,-0.383,-7.507,-54.260,28.381
1.355,-0.213,-0.395,7.996,-35.400,6.104
1.226,-0.287,-0.441,25.269,-13.733,-6.714
1.223,-0.263,-0.512,45.349,4.211,-8.606
1.213,-0.259,-0.602,65.430,13.550,-5.432
1.194,-0.270,-0.583,76.599,10.498,0.183
1.240,-0.288,-0.489,79.590,-1.160,8.057
1.369,-0.353,-0.414,68.970,-16.479,17.151
1.511,-0.467,-0.401,44.678,-34.180,28.442
1.596,-0.584,-0.396,16.174,-54.138,43.274
1.626,-0.693,-0.379,-11.963,-75.867,63.965
1.632,-0.756,-0.376,-34.485,-95.947,91.858
1.612,-0.727,-0.339,-46.570,-110.779,124.512
1.583,-0.662,-0.270,-51.392,-117.676,154.419
1.554,-0.599,-0.203,-51.880,-117.371,177.307
1.512,-0.561,-0.181,-51.147,-111.816,193.298
1.475,-0.556,-0.112,-48.401,-103.271,205.505
1.420,-0.587,-0.084,-44.678,-90.454,218.079
1.342,-0.639,-0.081,-40.771,-73.486,234.436
1.230,-0.750,-0.095,-36.438,-55.359,255.249
1.079,-0.767,-0.130,-28.442,-38.391,282.104
0.888,-0.683,-0.139,-16.541,-22.461,311.096
0.626,-0.590,-0.123,-3.662,-7.812,338.745
0.354,-0.484,-0.104,6.775,7.141,362.122
0.100,-0.355,-0.070,13.489,23.071,379.761
-0.155,-0.221,-0.015,16.724,39.978,391.968
-0.433,-0.070,0.060,17.822,59.021,399.353
-0.714,0.087,0.102,13.916,78.674,400.879
-1.064,0.218,0.086,6.042,95.947,396.118
-1.581,0.495,0.094,1.038,109.436,386.536
-2.222,1.014,0.098,4.272,120.483,372.803
-2.772,1.749,0.071,6.775,131.470,350.952
-3.274,2.613,-0.124,0.549,145.447,308.105
-3.798,3.511,-0.347,-18.372,147.644,218.384
-4.000,3.996,-0.624,-52.979,130.493,60.913
-4.000,3.694,-0.880,-85.876,95.520,-151.123
-4.000,2.655,-0.930,-86.731,56.458,-372.681
-4.000,1.318,-0.767,-50.537,30.884,-558.655
-4.000,0.208,-0.507,0.549,29.907,-689.941
-3.945,-0.742,-0.406,38.513,57.251,-774.658
-3.731,-1.610,-0.391,44.312,91.309,-827.759
-3.344,-2.631,-0.528,37.598,126.404,-862.854
-2.705,-3.649,-0.714,27.832,160.034,-870.056
-1.746,-4.000,-0.773,30.640,190.918,-836.487
-0.714,-4.000,-1.096,49.927,234.924,-769.531
0.258,-4.000,-1.429,52.429,269.409,-680.359
1.292,-4.000,-1.903,28.259,270.081,-602.966
2.512,-4.000,-2.487,1.465,236.023,-557.556
3.682,-4.000,-2.732,3.357,175.720,-524.292
4.000,-4.000,-2.544,34.668,107.361,-466.858
4.000,-4.000,-2.324,72.998,60.608,-363.098
4.000,-4.000,-2.085,88.745,21.729,-240.051
4.000,-3.879,-1.923,76.843,-21.423,-122.009
4.000,-3.518,-1.729,44.128,-71.777,-11.963
3.754,-3.080,-1.604,5.188,-119.873,98.999
2.919,-2.640,-1.447,-27.649,-162.781,201.782
2.100,-2.195,-1.257,-49.194,-193.909,283.447
1.384,-1.836,-1.114,-63.538,-210.266,342.712
0.841,-1.665,-1.041,-74.463,-216.248,380.920
0.380,-1.535,-0.974,-77.759,-217.896,413.696
-0.049,-1.331,-0.908,-67.139,-214.844,442.871
-0.383,-1.189,-0.791,-57.922,-211.975,452.026
-0.603,-1.145,-0.645,-59.387,-212.891,457.214
-0.752,-1.174,-0.505,-75.378,-212.524,471.130
-0.985,-1.144,-0.446,-95.886,-204.407,492.187
-1.337,-0.971,-0.407,-104.736,-188.110,508.179
-1.704,-0.668,-0.328,-96.619,-167.480,515.503
-2.024,-0.330,-0.210,-80.200,-143.005,517.578
-2.342,0.025,-0.078,-64.758,-110.107,521.179
-2.694,0.455,0.031,-51.270,-62.683,531.006
-3.084,1.113,-0.005,-40.222,-2.930,539.124
-3.439,2.188,-0.215,-35.828,53.406,519.592
-3.660,3.290,-0.447,-44.800,82.825,436.157
-3.790,3.975,-0.603,-66.650,73.853,266.968
-3.678,3.907,-0.651,-94.116,40.710,34.058
-3.253,2.956,-0.697,-100.037,18.250,-213.867
-2.786,1.651,-0.750,-67.932,18.188,-421.570
-2.447,0.572,-0.587,-18.799,29.907,-557.800
-2.136,-0.303,-0.521,36.804,61.279,-641.174
-1.676,-1.096,-0.453,78.613,109.924,-692.139
-0.942,-2.101,-0.407,95.337,158.813,-711.243
0.080,-3.051,-0.432,82.581,204.346,-688.660
1.202,-3.206,-0.593,58.105,243.225,-613.220
2.134,-2.761,-0.899,31.372,275.818,-501.160
2.686,-2.376,-1.388,14.038,298.889,-401.733
3.021,-2.195,-1.823,6.226,296.082,-352.600
3.555,-2.471,-1.960,8.423,254.517,-347.046
4.000,-2.727,-2.092,42.786,219.421,-336.060
4.000,-2.908,-2.172,82.764,193.115,-293.701
4.000,-3.139,-2.208,108.093,162.720,-217.468
3.960,-3.160,-2.275,113.586,121.399,-101.746
3.439,-2.757,-2.244,100.586,61.279,34.058
2.719,-2.121,-2.153,73.608,-10.620,164.612
1.973,-1.558,-2.009,40.283,-84.656,262.878
1.364,-1.206,-1.817,10.071,-154.419,320.007
0.893,-1.044,-1.602,-9.888,-212.769,347.595
0.510,-1.018,-1.374,-18.738,-255.615,363.037
0.163,-1.012,-1.136,-17.761,-284.912,377.136
-0.125,-0.999,-0.902,-12.085,-304.199,392.151
-0.460,-0.943,-0.647,-8.301,-316.284,406.738
-0.781,-0.930,-0.412,-7.568,-321.350,419.861
-1.191,-0.908,-0.160,-9.827,-313.843,431.091
-1.692,-0.695,0.094,-12.695,-293.091,449.768
-2.282,-0.405,0.267,-17.273,-259.216,473.816
-2.948,0.048,0.476,-19.958,-210.999,499.756
-3.533,0.859,0.653,-20.203,-146.606,525.391
-3.707,2.210,0.679,-23.437,-67.810,524.170
-3.728,3.545,0.415,-52.185,13.550,449.280
-4.000,4.000,0.051,-100.647,72.449,273.499
-4.000,3.999,-0.309,-131.958,92.957,12.878
-3.702,2.994,-0.546,-122.986,94.116,-271.362
-3.155,1.524,-0.631,-79.285,96.375,-509.033
-2.695,0.222,-0.568,-28.442,104.553,-663.086
-2.208,-1.071,-0.528,1.526,119.873,-743.408
-1.438,-2.420,-0.423,4.578,136.963,-769.714
-0.240,-3.913,-0.430,-13.123,150.208,-749.146
1.323,-4.000,-0.802,-32.349,155.151,-672.180
2.839,-3.697,-1.329,-30.457,152.283,-551.636
3.640,-2.749,-1.305,-15.503,153.870,-432.983
3.849,-2.547,-1.412,6.592,180.176,-352.356
4.000,-2.541,-1.777,35.461,211.304,-302.612
4.000,-2.516,-1.960,74.402,220.215,-264.832
4.000,-2.368,-2.066,112.549,211.426,-216.919
3.997,-2.157,-2.129,132.935,184.082,-144.348

1.027,-0.657,-0.655,41.199,10.986,26.978
1.190,-0.477,-0.583,40.588,10.559,39.551
1.144,-0.497,-0.639,21.423,13.855,49.194
1.212,-0.581,-0.704,0.488,13.000,53.528
1.263,-0.668,-0.738,-7.935,9.094,52.795
1.251,-0.701,-0.693,-4.822,4.089,51.880
1.265,-0.696,-0.652,4.761,1.282,55.481
1.258,-0.727,-0.757,7.874,2.808,62.195
1.242,-0.705,-0.874,12.207,2.502,69.824
1.224,-0.703,-0.882,21.118,-3.235,74.768
1.247,-0.733,-0.796,22.400,-13.062,74.036
1.279,-0.825,-0.852,10.132,-25.696,70.618
1.280,-0.901,-0.965,-5.737,-44.739,74.829
1.254,-0.878,-0.953,-12.939,-72.144,91.736
1.192,-0.857,-0.885,-21.973,-101.318,112.671
1.166,-0.894,-0.824,-36.499,-126.526,130.493
1.112,-0.952,-0.796,-48.584,-147.827,147.217
1.193,-0.903,-0.797,-55.359,-169.128,165.283
1.115,-0.856,-0.630,-52.673,-193.420,179.077
0.913,-0.826,-0.557,-47.852,-212.280,190.186
0.774,-0.737,-0.422,-55.969,-230.774,201.721
0.739,-0.538,-0.290,-60.181,-237.122,214.417
0.543,-0.727,-0.012,-68.848,-229.004,225.891
0.573,-0.314,-0.051,-79.956,-199.951,246.582
0.555,-0.211,0.049,-114.258,-156.616,267.456
0.387,-0.143,-0.104,-137.329,-112.671,276.733
0.189,-0.081,-0.157,-143.066,-82.703,276.306
0.040,-0.086,-0.154,-158.142,-65.186,273.437
-0.057,-0.087,-0.085,-176.636,-54.565,275.879
-0.165,-0.022,-0.062,-188.843,-45.959,285.339
-0.301,0.113,-0.043,-196.716,-36.194,295.105
-0.455,0.292,-0.015,-201.355,-23.010,296.631
-0.605,0.552,0.004,-205.139,-6.165,286.926
-0.819,0.790,-0.026,-208.862,15.076,271.240
-1.105,1.082,-0.135,-209.595,43.457,255.310
-1.458,1.498,-0.297,-206.665,79.285,237.305
-1.881,1.997,-0.556,-193.909,119.995,204.712
-2.292,2.495,-0.991,-173.950,156.189,141.663
-2.614,2.810,-1.501,-148.682,170.349,39.429
-2.794,2.784,-1.854,-117.676,149.170,-93.933
-2.816,2.392,-1.887,-76.843,97.961,-239.624
-2.738,1.709,-1.649,-33.386,35.583,-376.770
-2.643,0.865,-1.332,2.319,-16.968,-490.662
-2.494,-0.095,-1.075,30.579,-53.650,-574.890
-2.188,-1.006,-0.843,61.768,-74.280,-627.991
-1.713,-1.818,-0.583,97.595,-78.186,-650.574
-1.124,-2.384,-0.336,128.967,-62.622,-645.691
-0.587,-2.705,-0.380,143.555,-29.358,-618.408
0.062,-3.016,-0.380,134.583,-7.385,-579.895
0.765,-3.369,-0.446,122.803,4.211,-543.640
1.698,-3.841,-0.531,109.131,4.517,-511.658
2.773,-4.000,-0.606,114.502,-0.122,-485.535
3.765,-4.000,-0.379,128.723,-2.991,-450.195
4.000,-4.000,-0.141,143.433,5.798,-388.611
4.000,-4.000,-0.175,141.724,27.649,-290.955
4.000,-3.984,-0.357,126.709,36.194,-173.828
4.000,-3.590,-0.368,94.910,11.475,-60.242
4.000,-3.277,-0.397,59.937,-22.522,44.678
3.521,-2.944,-0.453,25.574,-49.255,140.503
2.836,-2.581,-0.482,-1.221,-72.754,224.670
2.147,-2.203,-0.515,-19.348,-88.562,293.823
1.531,-1.898,-0.583,-34.302,-95.276,345.764
0.988,-1.679,-0.642,-43.579,-98.083,380.859
0.542,-1.506,-0.661,-47.424,-101.929,404.785
0.198,-1.366,-0.613,-50.720,-107.849,422.668
-0.083,-1.276,-0.522,-59.448,-114.380,437.927
-0.328,-1.235,-0.425,-75.012,-117.554,453.796
-0.544,-1.161,-0.344,-93.750,-113.403,470.459
-0.732,-1.053,-0.296,-109.436,-101.196,484.375
-0.894,-0.950,-0.263,-118.469,-83.435,491.089
-1.078,-0.841,-0.238,-121.094,-64.697,490.967
-1.324,-0.656,-0.186,-115.356,-45.288,487.793
-1.632,-0.368,-0.120,-104.553,-21.179,484.924
-2.009,-0.003,-0.106,-94.971,10.742,482.788
-2.436,0.389,-0.201,-87.646,50.171,479.858
-2.891,0.900,-0.436,-82.214,91.125,473.083
-3.305,1.577,-0.784,-77.332,123.596,452.393
-3.569,2.432,-1.253,-77.637,133.484,399.231
-3.708,3.190,-1.670,-84.351,105.347,292.114
-3.782,3.528,-1.862,-91.919,38.147,126.465
-3.568,3.248,-1.806,-81.360,-44.495,-84.351
-3.242,2.319,-1.423,-31.250,-114.136,-308.289
-2.885,1.189,-0.908,37.231,-146.484,-499.329
-2.525,0.150,-0.485,97.717,-138.611,-633.545
-2.128,-0.831,-0.194,140.381,-102.356,-719.482
-1.456,-1.899,0.121,172.485,-50.537,-768.555
-0.378,-3.068,0.480,192.078,10.071,-778.625
1.180,-4.000,0.791,194.580,80.627,-741.577
2.727,-4.000,0.631,182.251,156.799,-653.625
3.815,-3.844,0.075,163.147,224.060,-535.706
4.000,-3.510,-0.589,141.296,267.151,-416.931
4.000,-3.369,-1.101,125.610,273.254,-321.655
4.000,-3.321,-1.327,119.873,251.526,-245.300
4.000,-3.163,-1.543,115.540,228.455,-161.926
4.000,-2.889,-1.790,105.774,204.468,-59.814
3.946,-2.517,-1.977,92.651,167.969,47.913
3.137,-2.109,-2.054,77.759,115.601,143.616
2.344,-1.716,-2.049,61.646,52.429,217.346
1.652,-1.451,-1.981,44.922,-15.198,269.409
1.065,-1.288,-1.841,28.748,-83.008,308.167
0.589,-1.175,-1.632,15.137,-145.508,338.989
0.209,-1.099,-1.413,3.235,-198.181,364.929
-0.114,-1.016,-1.166,-5.005,-238.220,384.705
-0.325,-0.978,-0.896,-13.000,-266.541,397.705
-0.492,-0.947,-0.590,-20.447,-282.654,409.485
-0.643,-0.882,-0.295,-29.175,-284.302,422.668
-0.767,-0.782,-0.056,-36.072,-270.630,435.547
-0.988,-0.692,0.109,-36.072,-243.774,442.871
-1.354,-0.571,0.272,-30.334,-207.092,445.007
-1.826,-0.331,0.452,-21.606,-160.583,452.515
-2.403,0.022,0.603,-8.118,-101.746,472.046
-3.012,0.564,0.643,9.949,-28.992,498.901
-3.510,1.460,0.501,25.879,50.354,511.230
-3.899,2.673,0.082,22.339,115.662,470.825
-3.997,3.599,-0.172,-14.160,136.597,344.055
-3.990,3.900,-0.514,-70.923,124.512,151.184
-3.902,3.433,-0.775,-104.736,82.947,-77.942
-3.528,2.330,-0.763,-96.619,26.733,-303.223
-3.057,1.181,-0.538,-61.035,-15.076,-484.497
-2.686,0.156,-0.318,-26.489,-29.724,-607.910
-2.294,-0.999,-0.174,-0.488,-22.156,-679.626
-1.691,-2.021,-0.039,13.977,-0.366,-709.534
-0.794,-2.870,0.025,21.179,34.790,-703.491
0.362,-3.299,-0.106,12.268,79.590,-662.170
1.661,-3.142,-0.414,-2.319,119.934,-592.957
2.760,-2.900,-0.807,-4.150,156.921,-527.100
3.359,-2.821,-1.132,4.517,179.993,-474.976
3.901,-2.912,-1.433,24.048,188.049,-431.946
4.000,-2.955,-1.624,51.758,180.908,-389.099
4.000,-3.042,-1.537,80.750,162.720,-337.524
4.000,-3.130,-1.645,111.511,154.358,-267.273
4.000,-3.093,-1.846,129.761,146.851,-167.236
4.000,-2.676,-1.839,119.690,101.685,-44.556
3.928,-2.183,-1.835,83.496,28.748,75.684
3.118,-1.793,-1.811,40.527,-42.542,174.133
2.354,-1.517,-1.658,8.240,-111.572,243.713
1.711,-1.318,-1.452,-7.629,-163.818,292.053
1.145,-1.153,-1.240,-11.658,-195.679,327.271
0.660,-1.036,-1.102,-10.437,-211.792,352.539
0.258,-0.915,-0.972,-9.827,-221.252,370.117
-0.047,-0.825,-0.838,-11.475,-228.455,382.080
-0.287,-0.797,-0.695,-15.259,-232.666,390.259
-0.504,-0.806,-0.537,-21.484,-232.727,397.461
-0.697,-0.774,-0.415,-30.884,-227.539,405.701
-0.887,-0.705,-0.350,-37.170,-218.140,413.513
-1.117,-0.615,-0.274,-35.706,-206.604,417.053
-1.426,-0.496,-0.134,-28.564,-192.017,418.640
-1.827,-0.375,0.000,-20.752,-169.800,420.593
-2.313,-0.154,0.109,-18.616,-138.367,425.415

0.747,-0.172,-0.630,1.831,20.203,13.245
0.785,-0.148,-0.593,4.395,20.203,7.263
0.783,-0.135,-0.615,10.132,21.057,0.793
0.764,-0.173,-0.606,7.324,23.315,-4.333
0.772,-0.221,-0.618,5.127,24.353,-5.798
0.784,-0.262,-0.639,5.127,24.719,-5.371
0.792,-0.280,-0.650,6.775,23.254,-3.784
0.804,-0.265,-0.661,9.766,20.996,-1.038
0.820,-0.244,-0.671,12.634,17.639,2.136
0.861,-0.290,-0.697,15.137,13.367,5.066
0.908,-0.291,-0.665,21.484,7.629,6.897
0.925,-0.297,-0.617,28.687,2.441,6.226
0.953,-0.352,-0.697,29.480,0.000,4.517
1.050,-0.396,-0.817,33.813,-4.272,3.296
1.074,-0.450,-0.820,48.950,-12.817,0.610
1.081,-0.458,-0.812,69.092,-21.973,-3.418
1.114,-0.547,-0.943,82.825,-27.527,-9.338
1.098,-0.559,-0.952,91.431,-34.851,-14.893
0.922,-1.112,-0.905,114.197,-44.800,-22.278
1.166,-1.107,-0.938,152.710,-53.772,-15.442
1.739,-0.549,-0.738,178.040,-62.439,10.498
1.917,-0.344,-0.355,167.847,-62.073,25.818
1.611,-0.519,-0.274,157.532,-44.983,31.616
1.261,-0.636,-0.493,148.743,-17.639,43.579
1.078,-0.581,-0.858,152.039,5.737,61.707
1.000,-0.450,-1.165,183.289,15.198,74.158
0.916,-0.360,-1.232,231.201,8.667,76.233
0.768,-0.265,-1.152,278.015,-4.639,70.923
0.617,-0.149,-1.022,325.317,-16.663,61.462
0.587,0.016,-0.682,367.981,-25.146,49.622
0.597,0.107,-0.499,386.047,-24.902,37.598
0.607,0.139,-0.509,385.681,-21.667,26.672
0.667,0.170,-0.437,373.413,-26.794,18.616
0.677,0.205,-0.408,338.562,-41.443,16.296
0.611,0.193,-0.383,290.222,-64.514,19.775
0.495,0.154,-0.341,248.962,-93.323,27.649
0.373,0.179,-0.256,219.299,-123.413,38.696
0.341,0.233,-0.082,193.726,-151.062,48.401
0.282,0.334,0.059,165.833,-172.913,55.542
0.225,0.377,0.172,136.475,-187.622,58.044
0.212,0.378,0.294,114.258,-192.749,55.847
0.204,0.374,0.372,98.022,-186.523,52.246
0.150,0.369,0.422,91.919,-172.119,48.401
0.095,0.368,0.529,95.093,-153.992,44.861
0.064,0.425,0.686,100.586,-130.554,42.419
0.065,0.481,0.828,104.004,-99.915,38.391
0.078,0.511,0.934,103.760,-63.904,31.738
0.080,0.533,0.999,100.281,-26.184,27.100
0.044,0.560,1.050,95.398,10.925,29.541
-0.041,0.634,1.088,90.393,46.265,40.588
-0.181,0.826,1.112,83.008,78.674,55.908
-0.332,1.052,1.103,67.566,106.140,66.772
-0.469,1.217,1.060,39.429,127.808,64.453
-0.628,1.307,0.990,2.380,144.226,47.485
-0.776,1.344,0.892,-38.330,157.166,18.494
-0.885,1.315,0.758,-78.125,170.044,-18.250
-0.977,1.257,0.584,-111.816,184.509,-61.218
-1.047,1.224,0.386,-135.742,199.951,-107.544
-1.056,1.119,0.097,-158.142,215.393,-156.677
-0.935,0.887,-0.315,-177.429,225.952,-206.726
-0.695,0.616,-0.707,-188.477,225.342,-247.437
-0.517,0.303,-1.027,-194.519,215.820,-273.315
-0.212,-0.063,-1.317,-190.491,205.688,-287.842
0.126,-0.430,-1.533,-172.302,201.172,-289.307
0.531,-0.765,-1.668,-135.376,205.994,-278.259
0.961,-1.010,-1.740,-88.684,220.398,-261.108
1.458,-1.268,-2.031,-62.012,241.028,-243.225
1.897,-1.564,-2.583,-72.266,246.033,-225.220
2.227,-1.933,-3.103,-86.487,212.097,-220.337
2.560,-2.339,-3.323,-91.125,136.169,-219.849
2.877,-2.622,-3.178,-68.420,41.870,-204.590
3.079,-2.678,-2.703,-26.489,-43.213,-168.335
3.144,-2.570,-2.117,10.803,-102.234,-114.746
3.060,-2.353,-1.607,33.142,-130.310,-50.415
2.831,-2.051,-1.265,38.635,-134.949,18.616
2.510,-1.715,-1.086,29.907,-129.517,86.975
2.118,-1.397,-1.032,12.207,-124.756,148.437
1.701,-1.098,-1.035,-7.446,-125.732,200.684
1.298,-0.797,-1.070,-23.804,-133.606,241.577
0.950,-0.524,-1.083,-34.790,-147.827,270.386
0.662,-0.319,-1.050,-40.222,-165.649,287.842
0.433,-0.180,-0.964,-40.100,-181.274,295.410
0.176,0.003,-0.843,-34.241,-189.209,295.410
0.007,0.027,-0.770,-20.874,-189.209,283.020
-0.147,0.067,-0.600,-13.794,-190.369,268.188
-0.274,0.090,-0.417,-5.676,-193.604,257.507
-0.412,0.085,-0.232,0.183,-192.566,250.610
-0.590,0.132,-0.044,5.493,-186.523,253.418
-0.799,0.248,0.169,10.925,-178.223,262.451
-1.053,0.402,0.446,21.423,-168.396,273.010
-1.371,0.646,0.849,39.978,-154.358,282.654
-1.674,0.982,1.280,57.739,-129.395,287.598
-1.876,1.419,1.633,55.969,-87.402,277.588
-1.958,1.801,1.838,29.907,-26.917,243.103
-2.045,2.095,1.782,-11.169,47.119,181.030
-2.100,2.131,1.517,-58.105,122.925,90.088
-2.136,1.900,1.036,-99.182,190.063,-20.813
-2.046,1.453,0.483,-129.211,235.352,-138.550
-1.857,0.887,-0.028,-154.053,247.986,-242.004
-1.539,0.271,-0.464,-174.683,232.056,-312.988
-1.032,-0.208,-0.848,-182.373,199.280,-347.351
-0.346,-0.399,-1.105,-176.514,165.222,-348.877
0.484,-0.501,-1.234,-173.401,147.034,-331.421
1.346,-0.666,-1.499,-182.922,150.879,-314.087
2.008,-1.031,-1.960,-183.289,164.124,-310.364
2.552,-1.568,-2.430,-157.715,166.260,-310.913
3.115,-2.053,-2.719,-120.544,142.090,-295.227
3.557,-2.314,-2.802,-65.063,92.224,-254.150
3.756,-2.341,-2.625,2.625,47.791,-183.044
3.694,-2.151,-2.294,62.561,10.681,-96.619
3.464,-1.823,-1.941,103.271,-16.235,-10.437
3.087,-1.442,-1.649,117.798,-38.757,63.538
2.628,-1.141,-1.459,112.244,-62.134,122.009
2.141,-0.906,-1.293,96.069,-88.440,167.419
1.651,-0.616,-1.151,79.651,-114.014,203.064
1.237,-0.459,-1.007,63.782,-136.414,223.083
0.902,-0.289,-0.954,50.720,-154.541,237.793
0.610,-0.135,-0.891,41.687,-169.800,241.760
0.385,-0.113,-0.813,36.987,-182.922,236.023
0.196,-0.112,-0.732,40.222,-193.176,230.896
0.011,-0.168,-0.607,47.424,-200.867,227.173
-0.190,-0.209,-0.459,58.716,-204.956,228.638
-0.431,-0.212,-0.254,69.092,-208.069,236.633
-0.732,-0.148,0.017,78.125,-211.182,248.962
-1.138,-0.020,0.409,93.201,-212.097,266.113
-1.623,0.124,0.950,114.136,-207.581,286.255
-2.101,0.414,1.555,135.986,-191.711,308.655
-2.367,1.049,2.180,138.367,-155.334,324.524
-2.330,1.855,2.642,101.135,-89.600,312.744
-2.276,2.625,2.817,26.306,7.446,254.150
-2.277,2.672,2.402,-70.496,124.451,136.780
-2.600,2.121,1.583,-154.297,236.145,-18.799
-2.507,1.409,0.760,-205.078,311.096,-172.180
-2.296,0.803,0.081,-238.159,337.463,-291.748
-1.951,0.248,-0.443,-261.475,325.562,-376.953
-1.466,-0.310,-0.984,-283.020,293.640,-433.411
-0.742,-1.020,-1.578,-310.364,250.732,-463.562
0.279,-1.666,-2.375,-330.383,193.237,-466.003
1.673,-1.989,-3.086,-334.167,115.967,-441.345
2.878,-2.036,-3.370,-311.951,26.367,-401.917
3.526,-2.256,-3.284,-243.225,-52.124,-357.117
3.786,-2.518,-2.730,-141.602,-97.839,-293.152
3.998,-2.555,-2.008,-25.879,-101.501,-205.627
3.999,-2.311,-1.508,85.693,-65.857,-107.056
3.727,-1.860,-1.340,169.739,-11.353,-11.475
3.284,-1.439,-1.291,210.876,27.588,71.777
2.718,-1.117,-1.304,216.858,36.621,140.991
2.108,-0.827,-1.324,203.003,16.968,197.388
1.536,-0.578,-1.324,179.443,-23.193,241.211

0.450,-0.269,-0.381,-16.785,-31.128,61.340
0.597,-0.281,-0.174,-20.691,-34.912,49.683
0.528,-0.352,-0.156,-5.554,-31.006,32.593
0.454,-0.349,-0.167,14.648,-27.283,17.029
0.503,-0.381,-0.189,26.794,-25.208,11.536
0.519,-0.333,-0.220,34.058,-23.376,15.076
0.569,-0.261,-0.232,35.828,-24.170,18.433
0.653,-0.203,-0.341,39.917,-23.621,16.846
0.725,-0.149,-0.418,42.664,-26.428,12.817
0.831,-0.117,-0.378,36.682,-34.241,6.104
0.962,-0.056,-0.466,37.537,-37.659,-1.526
1.111,-0.016,-0.608,29.419,-39.978,-12.756
1.227,-0.078,-0.595,8.972,-45.532,-26.306
1.297,-0.210,-0.504,-16.541,-49.622,-36.255
1.393,-0.308,-0.516,-35.828,-46.692,-37.231
1.504,-0.373,-0.656,-52.185,-41.565,-32.227
1.564,-0.310,-0.766,-68.420,-41.565,-26.733
1.588,-0.261,-0.777,-79.407,-49.194,-24.536
1.547,-0.274,-0.755,-80.688,-62.134,-28.076
1.455,-0.306,-0.743,-72.021,-78.918,-32.227
1.378,-0.213,-0.876,-57.922,-97.290,-33.386
1.278,-0.254,-0.879,-53.955,-121.277,-34.119
1.148,-0.305,-0.774,-53.162,-144.409,-34.363
1.061,-0.312,-0.739,-50.842,-159.424,-30.823
1.005,-0.257,-0.716,-47.058,-166.992,-22.156
0.968,-0.193,-0.684,-41.809,-167.480,-15.442
0.911,-0.168,-0.616,-40.100,-164.368,-14.709
0.797,-0.138,-0.595,-43.823,-163.025,-20.386
0.722,-0.054,-0.592,-49.072,-163.757,-31.799
0.651,-0.009,-0.521,-56.274,-165.527,-47.791
0.527,-0.055,-0.397,-62.744,-167.175,-67.871
0.374,-0.160,-0.261,-64.270,-168.030,-88.379
0.190,-0.243,-0.152,-61.340,-166.809,-105.896
-0.034,-0.355,-0.031,-56.030,-163.330,-115.906
-0.251,-0.465,0.042,-47.180,-157.593,-114.563
-0.422,-0.515,0.058,-30.579,-152.954,-100.037
-0.650,-0.591,0.155,-13.794,-152.771,-75.195
-0.826,-0.574,0.419,-2.869,-154.114,-42.664
-0.948,-0.693,0.682,15.625,-145.386,-12.695
-1.108,-0.751,0.828,46.265,-121.643,12.024
-1.310,-0.673,0.903,59.875,-90.637,32.715
-1.462,-0.787,1.104,45.471,-54.993,44.006
-1.529,-1.048,1.324,17.639,-7.202,50.903
-1.627,-1.250,1.405,-5.432,60.486,62.866
-1.742,-1.373,1.364,-25.452,143.372,85.693
-1.795,-1.404,1.262,-50.415,232.544,122.192
-1.772,-1.249,1.061,-78.613,319.031,169.434
-1.626,-0.925,0.795,-105.591,395.569,214.355
-1.389,-0.512,0.487,-129.761,457.275,242.371
-0.836,-0.141,0.143,-144.897,501.770,247.253
-0.091,0.201,-0.323,-141.602,528.503,230.469
0.852,0.689,-0.976,-110.168,533.081,201.477
2.105,1.266,-1.770,-48.828,506.531,170.471
3.229,1.817,-2.637,16.235,445.251,136.658
4.000,2.276,-3.428,71.655,349.976,95.581
4.000,2.880,-3.927,112.244,236.328,48.401
4.000,3.000,-4.000,110.168,122.131,-9.827
4.000,2.746,-3.942,74.768,23.804,-77.393
4.000,2.166,-3.665,39.734,-49.072,-149.658
3.997,1.480,-3.349,11.108,-100.281,-212.830
3.038,0.748,-3.029,-14.832,-139.343,-254.517
2.002,0.028,-2.730,-27.832,-177.673,-274.109
1.056,-0.559,-2.464,-15.259,-223.816,-274.231
0.228,-1.027,-2.234,15.381,-281.250,-258.179
-0.513,-1.321,-1.995,51.697,-348.816,-228.516
-1.049,-1.391,-1.696,86.487,-419.250,-191.467
-1.322,-1.501,-1.334,118.469,-479.248,-158.691
-1.457,-1.508,-1.030,151.184,-514.954,-132.324
-1.535,-1.451,-0.803,164.124,-522.644,-108.032
-1.698,-1.418,-0.585,151.367,-505.615,-84.839
-1.988,-1.463,-0.287,120.422,-469.788,-63.721
-2.368,-1.602,0.088,81.604,-417.969,-45.166
-2.655,-1.781,0.427,40.833,-353.333,-26.550
-2.753,-1.873,0.715,-0.610,-274.414,-5.493
-2.703,-1.874,0.940,-44.617,-180.542,22.949
-2.583,-1.750,1.014,-90.881,-75.378,63.599
-2.500,-1.519,1.035,-132.812,30.212,110.657
-2.463,-1.198,1.039,-167.480,127.075,160.278
-2.102,-0.825,1.109,-194.946,214.417,209.900
-1.798,-0.290,0.950,-207.764,293.701,249.023
-1.486,0.177,0.782,-207.092,357.727,268.677
-1.112,0.590,0.668,-203.186,402.832,268.311
-0.729,0.948,0.617,-192.871,432.373,248.840
-0.385,1.020,0.573,-172.607,449.585,209.900
-0.095,0.944,0.450,-143.494,459.351,156.433
0.236,0.939,0.184,-99.792,464.844,105.347
0.755,1.062,-0.251,-44.312,464.172,75.195
1.548,1.424,-0.890,11.475,453.430,73.853
2.761,1.937,-1.829,53.101,425.659,89.355
3.906,2.524,-2.905,70.923,377.869,103.699
4.000,2.822,-3.480,61.157,307.800,87.036
4.000,2.511,-3.820,21.667,226.013,20.081
4.000,1.932,-3.987,6.409,145.325,-78.918
4.000,1.217,-4.000,12.390,72.083,-165.894
3.922,0.552,-4.000,17.273,5.981,-207.703
3.188,0.081,-4.000,20.569,-53.955,-207.520
2.493,-0.262,-3.869,12.512,-118.408,-183.899
1.845,-0.441,-3.442,1.709,-193.115,-151.245
1.255,-0.494,-2.896,0.732,-270.081,-120.544
0.753,-0.483,-2.407,16.479,-340.515,-96.863
0.358,-0.444,-2.052,47.852,-399.109,-81.421
0.052,-0.396,-1.790,83.130,-444.824,-75.256
-0.184,-0.372,-1.564,109.558,-477.234,-78.308
-0.373,-0.366,-1.356,123.352,-495.605,-89.722
-0.523,-0.361,-1.165,127.319,-499.084,-105.164
-0.668,-0.343,-0.984,121.826,-488.220,-120.300
-0.830,-0.298,-0.809,106.262,-465.881,-131.531
-1.011,-0.240,-0.634,82.520,-435.425,-138.062
-1.139,-0.212,-0.418,51.392,-400.696,-140.869
-1.166,-0.279,-0.236,16.541,-362.000,-141.663
-1.468,-0.408,-0.010,-11.780,-320.496,-141.174
-1.848,-0.482,0.304,-29.968,-278.625,-139.282
-2.314,-0.787,0.721,-45.410,-233.154,-142.578
-2.716,-1.148,1.193,-54.321,-180.786,-142.090
-2.921,-1.562,1.623,-61.157,-119.385,-131.104
-2.941,-1.906,1.997,-62.744,-43.823,-101.013
-2.882,-1.947,2.183,-60.425,44.617,-42.358
-2.771,-1.768,2.253,-60.120,142.334,36.804
-2.579,-1.387,2.210,-58.960,239.807,120.422
-2.332,-0.918,2.108,-60.608,325.806,190.491
-2.099,-0.423,1.894,-62.500,393.188,234.192
-1.906,0.097,1.496,-56.335,442.932,247.375
-1.664,0.467,1.081,-39.124,479.980,233.276
-1.382,0.773,0.526,-12.268,508.423,205.261
-1.000,0.968,-0.093,24.231,524.597,174.988
-0.355,1.169,-0.890,74.219,522.827,153.381
0.623,1.513,-1.959,123.169,500.061,146.851
1.743,1.907,-3.055,147.156,449.402,144.836
3.124,2.205,-3.631,121.582,369.202,130.371
3.965,1.803,-3.577,40.649,276.978,92.651
4.000,1.616,-3.385,-43.396,203.674,50.842
3.827,1.366,-3.104,-80.688,171.997,1.404
3.873,0.835,-2.894,-72.998,172.791,-59.143
3.391,0.525,-2.855,-59.692,184.998,-108.887
2.847,0.020,-2.766,-68.115,176.147,-137.085
2.333,-0.338,-2.461,-77.148,134.399,-144.958
1.877,-0.529,-2.038,-78.430,74.036,-136.230
1.488,-0.618,-1.528,-67.993,7.996,-117.676
1.189,-0.617,-1.069,-40.649,-50.537,-96.436
0.964,-0.549,-0.718,-2.014,-96.313,-78.796
0.759,-0.519,-0.503,35.278,-128.052,-66.589
0.589,-0.481,-0.366,64.026,-148.437,-58.899
0.489,-0.472,-0.253,81.543,-159.790,-54.688
0.417,-0.469,-0.160,88.623,-162.231,-51.208
0.372,-0.476,-0.104,87.891,-155.640,-47.058
0.351,-0.500,-0.056,80.322,-141.602,-42.358
0.330,-0.523,-0.036,68.909,-121.826,-35.583
0.311,-0.535,-0.028,55.054,-98.877,-26.489
0.309,-0.549,-0.025,38.696,-75.623,-15.381

0.758,-0.110,-0.407,73.059,-63.110,-44.067
0.751,-0.285,-0.155,89.600,-57.495,-49.133
0.843,-0.295,-0.273,107.056,-52.673,-48.523
0.998,-0.319,-0.333,111.938,-55.603,-45.898
1.085,-0.257,-0.401,102.356,-63.354,-42.419
1.164,-0.218,-0.413,85.999,-71.533,-40.955
1.197,-0.213,-0.401,71.106,-77.148,-43.152
1.213,-0.217,-0.455,62.439,-80.383,-48.462
1.262,-0.181,-0.607,59.631,-86.365,-53.589
1.305,-0.123,-0.630,58.899,-101.929,-58.533
1.327,-0.087,-0.617,66.589,-124.695,-65.857
1.343,-0.055,-0.706,85.571,-147.278,-72.937
1.369,-0.013,-0.767,97.839,-170.044,-76.416
1.376,0.025,-0.718,93.079,-189.758,-77.942
1.323,0.013,-0.631,77.942,-199.646,-83.374
1.225,-0.065,-0.549,58.899,-198.242,-94.177
1.094,-0.153,-0.485,37.659,-189.575,-105.774
0.956,-0.272,-0.447,19.043,-177.917,-115.234
0.775,-0.404,-0.428,4.883,-166.870,-121.887
0.610,-0.518,-0.402,-4.211,-158.997,-124.573
0.441,-0.639,-0.357,-10.620,-153.931,-123.596
0.257,-0.760,-0.306,-11.108,-151.123,-118.591
0.114,-0.804,-0.296,-0.854,-151.001,-109.314
-0.047,-1.021,-0.211,9.094,-152.039,-96.680
-0.275,-1.154,-0.223,11.719,-154.602,-81.482
-0.485,-1.153,-0.185,20.264,-156.494,-58.533
-0.686,-1.233,-0.070,7.507,-155.884,-31.555
-0.907,-1.310,0.169,-25.085,-146.118,-0.671
-1.104,-1.378,0.385,-61.951,-119.751,33.875
-1.225,-1.517,0.558,-101.990,-73.853,68.665
-1.294,-1.584,0.742,-144.592,-9.094,100.708
-1.273,-1.623,0.932,-183.777,73.181,126.587
-1.274,-1.744,0.948,-212.036,169.189,145.569
-1.459,-1.661,0.763,-235.046,264.648,163.025
-1.554,-1.474,0.481,-258.057,345.093,183.533
-1.523,-1.177,0.238,-277.100,405.334,205.688
-1.419,-0.776,-0.059,-284.363,452.454,227.661
-1.199,-0.415,-0.294,-275.635,485.901,244.446
-0.925,-0.105,-0.606,-255.371,505.554,254.761
-0.538,0.175,-0.962,-232.910,509.338,257.019
-0.007,0.459,-1.278,-207.153,495.667,249.023
0.645,1.013,-1.629,-159.729,468.445,232.666
1.555,1.609,-1.808,-92.896,426.453,213.501
3.220,2.217,-1.877,-25.391,371.887,194.580
4.000,3.209,-1.932,11.658,299.683,177.368
3.290,3.575,-2.173,-26.001,221.375,149.780
3.627,3.323,-2.379,7.874,165.283,71.167
4.000,3.100,-2.755,74.402,118.042,-11.963
4.000,2.844,-2.973,91.736,66.589,-69.397
3.724,2.410,-2.973,48.401,8.667,-109.375
2.944,1.781,-2.779,-1.953,-40.527,-151.733
2.296,1.147,-2.530,-25.269,-72.388,-197.266
1.678,0.624,-2.326,-36.255,-92.590,-228.149
1.080,0.249,-2.154,-34.851,-114.502,-237.854
0.557,-0.061,-2.008,-22.583,-147.583,-231.873
0.053,-0.355,-1.819,-4.883,-195.007,-219.116
-0.216,-0.461,-1.657,17.212,-249.573,-206.238
-0.358,-0.650,-1.434,50.537,-301.819,-198.975
-0.519,-0.733,-1.233,90.027,-345.581,-193.787
-0.665,-0.723,-1.026,118.652,-374.939,-184.204
-0.792,-0.725,-0.812,134.705,-389.465,-173.401
-0.901,-0.764,-0.628,146.545,-390.503,-164.062
-1.034,-0.830,-0.466,153.259,-382.141,-154.907
-1.187,-0.981,-0.263,148.254,-367.554,-143.372
-1.364,-1.171,-0.051,133.911,-346.436,-127.930
-1.534,-1.395,0.223,112.549,-316.711,-108.582
-1.692,-1.612,0.476,89.478,-275.635,-86.609
-1.739,-1.844,0.629,64.514,-222.839,-61.707
-1.625,-2.023,0.744,27.649,-158.936,-29.724
-1.921,-2.117,0.930,-19.714,-85.571,9.583
-1.861,-2.075,1.051,-62.378,-0.610,58.228
-1.684,-1.875,0.991,-87.402,91.919,108.276
-1.420,-1.558,0.916,-109.802,175.842,158.569
-1.153,-1.123,0.818,-128.357,240.601,204.468
-0.833,-0.667,0.715,-135.315,284.241,231.201
-0.465,-0.171,0.495,-132.507,312.134,232.422
-0.054,0.333,0.302,-122.253,327.454,210.815
0.425,0.702,0.242,-102.356,331.543,174.683
1.079,1.037,0.119,-56.641,325.806,141.846
1.891,1.453,-0.128,20.874,306.458,122.986
2.716,1.872,-0.520,101.624,268.066,108.154
3.422,2.208,-0.991,152.344,214.172,83.862
3.998,2.488,-1.387,167.480,158.447,50.354
4.000,2.578,-1.631,138.123,118.286,8.545
4.000,2.438,-1.933,80.811,99.792,-44.128
4.000,2.099,-2.399,29.602,93.872,-105.286
3.671,1.547,-2.885,-3.113,80.078,-162.476
3.058,0.916,-3.211,-25.879,42.908,-202.209
2.426,0.349,-3.284,-37.170,-18.066,-217.834
1.835,-0.055,-3.114,-33.875,-95.398,-213.135
1.318,-0.264,-2.821,-18.677,-177.368,-198.364
0.893,-0.349,-2.506,2.808,-253.662,-183.289
0.559,-0.344,-2.255,25.879,-318.787,-175.232
0.287,-0.309,-2.028,44.006,-371.826,-177.734
0.040,-0.266,-1.803,52.490,-412.292,-189.026
-0.187,-0.233,-1.582,51.697,-440.002,-205.566
-0.326,-0.228,-1.392,43.091,-453.735,-221.375
-0.553,-0.274,-1.302,30.762,-453.247,-230.652
-0.858,-0.258,-1.200,19.165,-442.322,-232.788
-1.145,-0.396,-0.976,0.305,-423.706,-230.042
-1.413,-0.620,-0.686,-20.325,-395.203,-220.703
-1.609,-0.778,-0.317,-37.354,-358.765,-203.918
-1.749,-0.908,0.066,-51.819,-317.505,-181.580
-1.842,-1.055,0.409,-65.186,-273.865,-156.250
-1.891,-1.148,0.717,-78.003,-231.445,-127.808
-1.978,-1.156,1.005,-84.106,-191.528,-97.290
-2.069,-1.124,1.334,-85.754,-153.870,-68.176
-2.103,-1.166,1.763,-85.815,-114.502,-43.213
-2.116,-1.270,2.104,-78.430,-64.636,-19.714
-2.169,-1.342,2.230,-57.922,-3.784,5.432
-2.234,-1.379,2.149,-34.058,63.110,35.828
-2.266,-1.389,2.000,-19.836,131.470,74.951
-2.295,-1.380,1.797,-15.320,200.073,122.253
-2.352,-1.253,1.501,-13.794,266.357,173.218
-2.394,-0.959,1.074,-11.414,328.430,222.107
-2.323,-0.632,0.654,-13.428,382.996,264.221
-2.123,-0.301,0.250,-23.621,431.641,298.584
-1.790,0.069,-0.174,-32.654,472.107,322.144
-1.257,0.370,-0.579,-32.776,496.765,331.299
-0.610,0.650,-0.950,-17.822,500.977,329.529
0.075,1.014,-1.437,13.123,484.192,321.289
0.883,1.539,-1.851,52.551,441.162,305.481
1.886,1.994,-2.218,78.857,377.136,279.846
2.737,2.526,-2.807,86.853,307.861,250.427
3.461,3.050,-3.048,55.115,248.352,214.478
4.000,3.072,-2.917,-16.663,210.388,151.794
4.000,2.584,-2.621,-98.633,200.317,69.763
4.000,1.701,-2.409,-135.925,209.290,-9.705
3.574,0.991,-2.275,-108.276,218.811,-64.392
2.931,0.513,-2.196,-59.448,210.022,-87.036
2.416,0.270,-1.989,-25.879,174.316,-87.952
1.975,0.064,-1.678,-19.836,117.676,-79.834
1.594,-0.075,-1.260,-23.193,50.659,-70.129
1.303,-0.166,-0.868,-13.489,-10.315,-64.026
1.088,-0.217,-0.570,10.498,-56.702,-62.500
0.926,-0.252,-0.384,38.269,-86.182,-62.500
0.801,-0.280,-0.287,58.960,-100.281,-61.829
0.701,-0.311,-0.231,68.298,-102.722,-58.899
0.616,-0.350,-0.189,66.895,-96.741,-54.016
0.543,-0.385,-0.151,59.387,-85.144,-47.180
0.485,-0.418,-0.132,50.415,-70.374,-38.635
0.447,-0.452,-0.125,41.687,-54.749,-28.809
0.428,-0.467,-0.114,34.485,-39.795,-17.883
0.476,-0.447,-0.097,27.527,-25.391,-5.920
0.441,-0.407,-0.174,18.982,-11.719,6.470
0.435,-0.297,-0.235,14.099,-0.671,16.846
0.484,-0.257,-0.284,9.094,8.362,20.081
0.525,-0.230,-0.322,4.456,15.991,17.700
0.560,-0.217,-0.343,1.892,21.790,13.489

0.768,-0.201,-0.239,21.301,-96.069,-22.339
0.980,-0.140,-0.140,18.066,-95.581,-31.738
0.932,-0.174,-0.049,26.733,-91.309,-44.128
0.882,-0.192,-0.072,43.518,-85.266,-58.044
0.899,-0.230,-0.153,51.697,-79.773,-66.956
0.929,-0.276,-0.180,43.640,-76.721,-67.749
0.932,-0.304,-0.135,27.893,-74.097,-62.866
0.977,-0.305,-0.090,16.357,-70.007,-56.091
1.058,-0.246,-0.100,10.742,-66.895,-49.561
1.160,-0.143,-0.086,8.789,-69.275,-45.532
1.194,-0.078,-0.075,11.658,-76.233,-48.096
1.208,0.033,-0.132,23.193,-85.327,-57.190
1.313,0.056,-0.142,34.546,-97.900,-71.533
1.284,0.000,-0.132,42.480,-110.107,-89.905
1.187,-0.081,-0.109,49.866,-118.408,-106.628
1.063,-0.193,-0.087,52.551,-122.742,-118.530
0.940,-0.302,-0.061,50.232,-123.230,-124.146
0.811,-0.394,-0.016,45.288,-119.812,-125.793
0.702,-0.463,-0.017,39.551,-112.854,-125.183
0.589,-0.484,-0.069,35.828,-104.126,-125.183
0.476,-0.502,-0.130,36.804,-94.543,-127.441
0.316,-0.588,-0.062,40.649,-89.783,-132.141
0.173,-0.735,-0.033,43.518,-88.013,-136.475
0.001,-0.810,-0.034,54.016,-86.670,-134.155
-0.141,-0.879,-0.043,64.880,-87.158,-124.512
-0.256,-0.909,-0.059,78.003,-88.684,-107.727
-0.314,-0.891,-0.054,88.074,-91.003,-85.632
-0.395,-0.875,-0.066,87.463,-94.727,-60.059
-0.475,-0.888,-0.059,74.341,-98.572,-32.654
-0.595,-0.982,-0.008,49.561,-98.999,-6.165
-0.775,-1.168,0.042,15.808,-88.440,18.372
-0.961,-1.464,0.141,-27.649,-62.073,44.800
-1.175,-1.796,0.300,-79.529,-16.663,74.219
-1.446,-2.071,0.411,-125.977,50.964,107.544
-1.670,-2.195,0.371,-153.992,137.512,145.447
-1.867,-2.148,0.152,-173.767,228.027,192.078
-2.023,-1.939,-0.101,-199.463,306.763,250.000
-2.134,-1.573,-0.279,-232.056,369.141,313.599
-2.092,-1.118,-0.438,-260.071,418.091,370.972
-1.817,-0.639,-0.545,-274.536,454.895,414.490
-1.434,-0.103,-0.714,-276.306,478.821,441.772
-0.931,0.444,-0.911,-269.165,487.854,449.951
-0.359,1.290,-1.100,-245.239,483.154,440.308
0.507,2.351,-1.195,-197.388,472.107,415.039
1.780,3.286,-1.649,-131.836,459.778,368.469
3.166,3.867,-2.334,-73.730,435.242,296.570
4.000,4.000,-2.700,-54.077,385.986,211.853
4.000,4.000,-2.886,-72.205,323.547,124.023
4.000,3.816,-3.080,-93.445,257.324,33.630
4.000,3.267,-3.308,-85.022,190.002,-53.650
3.760,2.756,-3.487,-65.430,121.033,-124.023
3.285,2.309,-3.494,-54.871,50.171,-171.875
2.680,1.775,-3.360,-55.420,-18.555,-204.468
2.010,1.248,-3.108,-52.734,-79.590,-229.919
1.332,0.781,-2.865,-28.748,-134.399,-250.977
0.675,0.388,-2.603,18.799,-194.153,-267.517
0.130,0.090,-2.376,80.383,-265.259,-279.236
-0.234,-0.132,-2.156,145.081,-342.346,-287.109
-0.505,-0.218,-1.879,201.965,-413.208,-288.879
-0.813,-0.211,-1.474,236.450,-466.858,-285.156
-0.861,-0.217,-1.221,248.230,-492.432,-277.893
-0.946,-0.342,-0.947,258.301,-490.906,-273.437
-1.155,-0.487,-0.741,249.817,-468.994,-267.334
-1.461,-0.782,-0.556,220.947,-432.983,-259.338
-1.868,-1.305,-0.441,179.871,-384.155,-246.765
-2.270,-1.901,-0.348,133.850,-323.669,-223.999
-2.615,-2.408,-0.245,82.886,-253.235,-187.561
-2.835,-2.873,-0.095,33.020,-177.795,-138.977
-2.702,-3.226,-0.018,-7.263,-104.370,-74.341
-2.806,-3.243,0.120,-47.668,-40.527,7.690
-2.663,-2.953,0.280,-80.750,14.648,101.868
-2.510,-2.423,0.339,-99.243,68.787,193.970
-2.211,-1.719,0.216,-102.661,117.126,272.827
-1.872,-1.005,0.186,-111.572,151.917,329.956
-1.493,-0.404,0.286,-127.869,177.612,360.413
-1.085,0.078,0.317,-140.198,204.041,368.713
-0.589,0.547,0.285,-143.677,233.704,362.793
0.055,1.039,0.292,-139.099,260.559,351.562
0.922,1.580,0.187,-118.286,283.630,335.510
1.876,2.188,-0.012,-78.796,297.363,312.622
2.812,2.653,-0.503,-37.476,295.593,278.687
3.660,3.196,-0.993,-18.616,277.161,231.689
4.000,3.568,-1.382,-29.358,245.972,167.297
4.000,3.695,-1.730,-55.908,211.182,88.867
4.000,3.414,-2.003,-82.642,180.420,2.869
4.000,2.882,-2.297,-102.844,151.428,-75.623
3.999,2.319,-2.615,-100.891,113.281,-137.817
3.441,1.692,-2.886,-72.510,53.894,-182.922
2.831,1.175,-2.956,-28.687,-30.701,-208.435
2.242,0.801,-2.763,15.869,-131.348,-217.712
1.743,0.540,-2.428,56.091,-225.586,-221.191
1.312,0.383,-2.094,89.294,-294.983,-224.304
0.924,0.259,-1.840,106.750,-336.792,-229.797
0.573,0.135,-1.675,107.422,-355.225,-238.953
0.243,0.031,-1.581,97.351,-357.849,-248.962
-0.039,-0.083,-1.472,80.505,-351.929,-256.287
-0.291,-0.176,-1.355,58.777,-341.370,-258.484
-0.600,-0.218,-1.230,38.025,-328.674,-254.700
-0.834,-0.312,-1.043,21.362,-314.148,-247.131
-1.002,-0.449,-0.802,11.169,-296.875,-232.849
-1.157,-0.531,-0.586,10.010,-277.222,-210.205
-1.279,-0.595,-0.409,11.963,-257.568,-183.411
-1.382,-0.662,-0.206,10.376,-241.089,-157.227
-1.463,-0.722,0.048,2.686,-226.318,-134.644
-1.583,-0.781,0.347,-10.437,-208.740,-117.615
-1.776,-0.916,0.703,-27.832,-184.509,-105.957
-2.034,-1.105,1.117,-44.800,-149.902,-92.896
-2.285,-1.375,1.441,-53.589,-104.065,-79.163
-2.451,-1.720,1.668,-54.749,-50.110,-58.716
-2.520,-2.077,1.869,-49.194,8.667,-18.188
-2.569,-2.206,1.969,-40.894,73.242,51.025
-2.611,-2.034,1.884,-32.532,141.296,142.273
-2.561,-1.653,1.654,-27.832,206.482,235.779
-2.398,-1.166,1.414,-29.419,262.878,313.721
-2.218,-0.583,1.103,-32.593,312.561,366.699
-1.974,-0.040,0.731,-32.593,356.506,392.639
-1.579,0.426,0.274,-30.701,394.104,398.254
-1.027,0.813,-0.161,-26.428,420.288,392.334
-0.445,1.163,-0.564,-21.912,433.228,379.639
0.260,1.604,-0.992,-12.390,436.829,362.244
0.927,2.274,-1.585,10.498,432.251,336.243
1.841,2.806,-2.304,30.212,413.330,293.640
2.447,3.105,-2.985,29.663,377.014,235.657
2.904,3.090,-3.249,15.442,333.374,168.823
2.896,2.638,-3.524,4.639,288.330,101.257
2.693,2.268,-3.565,7.812,233.154,49.316
2.566,1.799,-3.333,4.761,168.762,9.766
2.438,1.425,-2.825,-9.705,111.511,-15.808
2.240,1.117,-2.234,-27.649,73.059,-30.945
1.990,0.819,-1.701,-44.617,55.603,-41.077
1.730,0.531,-1.306,-57.678,51.758,-51.086
1.496,0.281,-1.045,-65.979,51.086,-62.012
1.295,0.100,-0.858,-67.017,46.570,-72.266
1.116,-0.021,-0.719,-61.279,37.170,-78.491
0.966,-0.120,-0.602,-50.842,23.560,-79.102
0.845,-0.194,-0.488,-37.659,8.179,-74.951
0.752,-0.221,-0.410,-21.851,-5.798,-66.528
0.699,-0.219,-0.368,-5.920,-16.785,-55.542
0.698,-0.192,-0.352,6.714,-24.963,-44.006
0.713,-0.177,-0.321,14.282,-29.907,-34.058
0.713,-0.177,-0.307,17.090,-31.006,-27.466
0.696,-0.190,-0.320,16.663,-28.687,-24.597
0.699,-0.194,-0.345,14.526,-23.560,-23.682
0.719,-0.192,-0.400,9.338,-16.785,-22.583
0.719,-0.176,-0.495,1.526,-9.888,-21.301
0.727,-0.139,-0.557,-9.033,-5.188,-20.508
0.744,-0.133,-0.535,-21.912,-1.953,-20.996
0.737,-0.143,-0.508,-33.020,2.136,-22.644
0.714,-0.156,-0.512,-38.208,7.263,-25.635

0.708,-0.476,-0.065,-88.806,-27.161,68.481
0.848,-0.647,0.027,-74.158,-27.527,55.664
0.748,-0.555,-0.134,-56.213,-17.761,47.485
0.672,-0.568,-0.246,-48.157,-8.545,40.771
0.666,-0.649,-0.327,-52.246,-3.845,34.851
0.617,-0.690,-0.330,-64.148,-0.854,35.645
0.580,-0.694,-0.291,-78.735,2.502,43.457
0.575,-0.674,-0.299,-86.731,5.493,53.284
0.588,-0.660,-0.293,-87.158,4.395,61.340
0.652,-0.581,-0.235,-82.336,-0.671,67.749
0.741,-0.477,-0.189,-69.946,-5.493,69.153
0.734,-0.510,-0.231,-52.856,-10.132,63.599
0.743,-0.462,-0.313,-37.048,-16.602,57.007
0.809,-0.453,-0.271,-34.180,-25.208,53.162
0.847,-0.396,-0.185,-38.757,-27.283,49.866
0.866,-0.372,-0.144,-44.739,-19.714,44.556
0.859,-0.372,-0.172,-49.988,-9.338,36.987
0.853,-0.396,-0.187,-53.162,-2.258,30.579
0.858,-0.414,-0.146,-52.856,0.305,26.611
0.865,-0.495,-0.125,-41.687,4.456,25.146
0.852,-0.438,-0.133,-35.217,6.348,26.428
0.900,-0.446,-0.139,-31.799,4.700,27.527
0.960,-0.495,-0.106,-18.677,3.601,29.663
1.009,-0.542,-0.115,-5.005,2.197,34.912
1.069,-0.576,-0.151,6.592,1.160,43.335
1.150,-0.566,-0.206,21.057,0.061,54.443
1.252,-0.518,-0.254,36.011,-1.465,66.528
1.339,-0.460,-0.281,49.133,-4.333,75.928
1.348,-0.414,-0.414,57.861,-7.446,79.895
1.269,-0.376,-0.624,59.692,-14.282,78.430
1.190,-0.365,-0.677,48.462,-29.663,73.242
1.160,-0.330,-0.643,28.381,-48.523,66.589
1.188,-0.313,-0.567,9.949,-64.880,56.885
1.164,-0.328,-0.468,-2.197,-77.820,43.640
1.076,-0.337,-0.406,-9.033,-87.524,28.870
0.959,-0.347,-0.371,-13.428,-96.313,14.648
0.847,-0.367,-0.303,-17.883,-105.103,2.686
0.734,-0.379,-0.229,-22.034,-112.671,-4.578
0.625,-0.401,-0.170,-26.001,-117.676,-7.507
0.525,-0.419,-0.108,-28.259,-121.338,-6.836
0.440,-0.409,-0.043,-28.564,-124.084,-2.563
0.385,-0.385,0.062,-27.283,-125.916,5.432
0.348,-0.342,0.204,-23.376,-125.000,15.076
0.324,-0.306,0.334,-13.855,-119.385,25.085
0.307,-0.288,0.433,0.427,-108.887,34.302
0.281,-0.253,0.505,18.127,-95.886,43.030
0.247,-0.244,0.563,37.292,-81.909,50.964
0.204,-0.242,0.606,57.861,-67.566,58.472
0.155,-0.227,0.630,78.857,-51.819,66.162
0.100,-0.165,0.648,93.750,-33.142,73.181
0.052,-0.099,0.667,94.849,-10.803,76.843
0.005,-0.075,0.679,83.801,15.381,75.073
-0.015,-0.094,0.672,64.026,45.715,67.200
-0.042,-0.089,0.662,37.659,78.491,53.711
-0.067,-0.084,0.630,7.996,111.633,36.438
-0.080,-0.095,0.598,-23.376,143.677,18.677
-0.075,-0.123,0.570,-54.321,174.805,2.625
-0.058,-0.139,0.521,-82.947,204.163,-8.667
-0.037,-0.149,0.432,-107.544,230.896,-17.334
-0.021,-0.156,0.315,-127.869,252.563,-24.963
-0.001,-0.155,0.208,-143.799,268.494,-31.799
0.025,-0.159,0.069,-153.687,277.405,-38.086
0.099,-0.199,-0.091,-153.748,277.954,-43.945
0.177,-0.260,-0.316,-143.433,268.677,-48.950
0.339,-0.327,-0.485,-118.530,245.850,-55.969
0.584,-0.451,-0.539,-78.430,211.487,-65.125
0.736,-0.526,-0.647,-30.640,175.720,-72.998
0.834,-0.599,-0.825,13.245,145.630,-78.186
0.936,-0.687,-1.025,41.565,123.840,-79.773
1.068,-0.775,-1.233,48.279,109.009,-76.416
1.241,-0.842,-1.408,33.264,98.145,-68.970
1.470,-0.977,-1.496,-0.244,89.600,-58.594
1.834,-1.066,-1.602,-35.217,85.327,-45.654
2.090,-1.159,-1.688,-46.204,84.534,-37.231
2.322,-1.135,-1.760,-34.485,81.421,-35.522
2.456,-1.192,-1.848,-28.625,68.176,-32.654
2.515,-1.239,-1.919,-27.710,41.443,-23.865
2.525,-1.214,-1.895,-19.531,5.676,-9.033
2.530,-1.152,-1.785,-6.531,-32.227,8.057
2.423,-1.028,-1.671,9.888,-66.162,24.902
2.245,-0.926,-1.583,26.062,-91.980,37.598
2.034,-0.840,-1.519,35.950,-110.840,47.485
1.844,-0.733,-1.418,36.682,-125.793,55.786
1.672,-0.638,-1.276,29.968,-137.512,60.669
1.508,-0.562,-1.120,19.592,-145.569,60.486
1.341,-0.506,-0.989,8.789,-150.940,56.396
1.172,-0.467,-0.887,-1.648,-157.043,49.927
0.999,-0.445,-0.746,-13.000,-165.588,42.175
0.819,-0.435,-0.585,-24.536,-175.476,33.875
0.634,-0.441,-0.420,-36.804,-184.082,26.184
0.465,-0.461,-0.230,-46.143,-189.209,20.874
0.312,-0.469,-0.057,-51.575,-188.721,18.555
0.146,-0.418,0.071,-50.964,-182.495,18.982
-0.047,-0.345,0.186,-51.514,-172.119,19.836
-0.297,-0.251,0.352,-60.303,-159.363,23.071
-0.625,-0.047,0.600,-72.571,-143.555,28.198
-0.938,0.166,0.976,-86.121,-122.620,29.541
-1.217,0.328,1.380,-97.107,-92.590,24.841
-1.352,0.398,1.703,-103.149,-51.514,15.503
-1.269,0.378,1.776,-99.976,-2.319,2.869
-1.089,0.299,1.861,-93.323,48.584,-10.010
-1.225,0.538,1.735,-98.633,98.206,-28.137
-1.330,0.713,1.631,-101.013,145.081,-60.120
-1.490,0.663,1.411,-78.857,190.247,-103.699
-1.390,0.450,1.010,-40.649,229.614,-140.625
-1.089,0.061,0.572,-19.653,254.395,-160.828
-0.758,-0.340,0.224,-23.621,262.878,-159.546
-0.396,-0.650,-0.142,-27.710,262.573,-141.907
0.045,-0.914,-0.524,-18.066,255.310,-116.638
0.661,-1.290,-1.013,-1.160,239.502,-89.478
1.428,-1.621,-1.513,31.799,212.402,-60.913
2.015,-1.518,-2.049,93.140,171.753,-31.738
2.466,-1.276,-2.531,144.653,116.211,-7.507
2.883,-1.070,-2.827,147.156,55.603,4.700
3.167,-1.010,-2.912,107.239,7.935,2.136
3.225,-1.038,-2.907,55.176,-20.325,-8.850
3.093,-1.091,-2.847,11.841,-38.635,-19.897
2.813,-1.116,-2.720,-20.447,-58.899,-22.827
2.464,-1.120,-2.461,-43.823,-88.379,-16.357
2.087,-1.088,-2.042,-55.908,-124.390,-3.967
1.697,-1.018,-1.571,-56.030,-158.691,12.085
1.275,-0.928,-1.124,-45.959,-185.120,30.701
0.825,-0.826,-0.635,-34.119,-202.637,47.668
0.352,-0.735,-0.166,-20.508,-209.229,61.890
-0.141,-0.624,0.279,-7.202,-205.750,72.937
-0.549,-0.527,0.736,1.099,-193.787,81.848
-0.835,-0.379,1.130,6.348,-171.326,90.271
-1.029,-0.162,1.440,12.695,-138.489,95.032
-1.091,0.033,1.657,20.203,-99.304,92.102
-1.055,0.163,1.763,28.748,-57.556,80.750
-1.004,0.279,1.717,36.560,-14.648,63.110
-0.966,0.322,1.605,35.950,29.846,40.039
-0.931,0.278,1.445,28.687,76.843,13.245
-0.900,0.193,1.124,24.170,121.948,-12.268
-0.815,0.101,0.713,30.396,156.555,-32.410
-0.604,0.013,0.345,45.410,174.377,-42.480
-0.275,-0.047,0.027,61.646,180.298,-40.955
0.133,-0.081,-0.267,74.829,180.664,-30.945
0.588,-0.107,-0.537,83.130,177.429,-17.578
0.961,-0.120,-0.765,86.548,170.471,-7.385
1.354,-0.160,-0.987,90.576,159.363,-3.784
1.707,-0.161,-1.249,96.619,145.447,-5.066
1.911,-0.195,-1.514,94.849,126.099,-12.207
1.989,-0.284,-1.716,86.548,98.267,-23.865
2.000,-0.414,-1.798,74.463,65.674,-35.095
1.991,-0.531,-1.770,59.326,35.828,-42.114
1.958,-0.647,-1.707,45.776,12.878,-43.640
1.903,-0.756,-1.635,35.522,-4.517,-39.001
1.827,-0.798,-1.523,26.672,-19.531,-28.931

0.698,-0.442,-0.112,142.395,-145.325,-17.273
0.724,-0.526,0.037,179.260,-152.100,-16.663
0.712,-0.456,-0.089,212.463,-155.457,-13.123
0.686,-0.339,-0.180,229.187,-164.795,-7.446
0.730,-0.271,-0.168,233.032,-178.589,-4.211
0.756,-0.251,-0.067,232.605,-191.650,-4.944
0.747,-0.213,-0.028,235.107,-195.801,-11.047
0.762,-0.188,-0.077,238.525,-190.796,-21.729
0.731,-0.200,-0.221,236.206,-184.143,-34.241
0.645,-0.231,-0.414,225.891,-181.152,-46.936
0.542,-0.320,-0.404,202.393,-184.570,-56.824
0.419,-0.431,-0.297,178.955,-188.904,-61.646
0.254,-0.594,-0.304,166.565,-187.439,-60.425
0.097,-0.678,-0.336,159.668,-188.599,-51.697
-0.051,-0.822,-0.265,152.893,-196.228,-36.743
-0.239,-0.930,-0.127,145.508,-202.148,-18.127
-0.448,-1.104,0.127,134.155,-197.388,0.610
-0.706,-1.350,0.162,127.808,-173.767,19.043
-0.905,-1.689,0.228,108.459,-140.747,40.100
-1.091,-1.966,0.211,75.867,-94.421,68.665
-1.220,-2.154,0.155,31.433,-34.058,104.126
-1.297,-2.178,0.151,-20.813,35.400,143.127
-1.334,-1.976,0.035,-83.374,113.708,184.448
-1.407,-1.633,-0.151,-145.752,197.388,220.703
-1.363,-1.212,-0.353,-191.833,274.292,245.605
-1.102,-0.794,-0.391,-217.834,333.496,260.925
-0.740,-0.423,-0.459,-222.107,373.596,272.827
-0.296,0.188,-0.611,-202.515,396.484,285.461
0.397,1.129,-0.698,-155.823,397.888,297.424
1.385,2.136,-0.810,-96.130,371.826,301.453
2.511,2.924,-0.932,-47.607,316.895,289.856
3.472,3.591,-0.988,-20.264,250.793,259.460
4.000,4.000,-0.844,0.000,189.697,203.125
4.000,4.000,-0.787,14.526,137.512,117.188
4.000,4.000,-0.895,9.399,95.032,22.156
4.000,3.676,-1.018,-2.808,65.063,-65.613
3.871,3.124,-1.125,-18.188,48.889,-144.531
3.221,2.511,-1.245,-38.635,41.809,-211.121
2.487,1.770,-1.345,-60.181,35.400,-262.939
1.740,1.036,-1.504,-64.331,18.066,-297.729
1.050,0.426,-1.645,-39.795,-22.766,-311.157
0.503,-0.006,-1.731,4.822,-89.539,-304.687
0.139,-0.248,-1.715,62.317,-168.396,-287.659
-0.080,-0.434,-1.606,117.493,-242.065,-270.630
-0.241,-0.520,-1.431,155.212,-296.936,-258.789
-0.381,-0.570,-1.210,169.739,-327.698,-250.854
-0.554,-0.651,-0.979,166.077,-333.191,-242.798
-0.820,-0.731,-0.741,152.466,-316.711,-231.384
-1.179,-0.911,-0.540,129.883,-283.813,-214.661
-1.633,-1.277,-0.391,103.210,-238.953,-191.162
-2.091,-1.764,-0.288,69.946,-184.265,-158.936
-2.480,-2.332,-0.180,37.659,-123.535,-117.798
-2.728,-2.861,-0.117,10.315,-60.913,-65.796
-2.757,-3.158,-0.045,-20.325,-1.160,-1.953
-2.669,-3.090,0.056,-54.077,52.795,74.463
-2.511,-2.716,0.174,-81.543,98.938,156.433
-2.307,-2.082,0.256,-97.534,138.428,234.924
-1.997,-1.440,0.254,-98.206,176.086,299.561
-1.625,-0.829,0.085,-93.689,212.280,345.581
-1.207,-0.245,-0.162,-95.459,242.432,370.972
-0.660,0.284,-0.347,-111.267,263.977,376.404
0.024,0.791,-0.326,-131.226,278.015,366.272
0.825,1.475,-0.116,-130.981,290.344,349.670
1.917,2.402,-0.088,-91.553,304.138,330.688
3.099,3.197,-0.787,-17.517,315.430,305.664
3.997,3.949,-1.542,44.556,298.218,268.127
4.000,4.000,-2.021,45.837,235.596,209.045
4.000,4.000,-2.191,0.977,148.254,121.704
4.000,4.000,-2.136,-26.245,71.289,13.184
4.000,3.449,-2.230,-33.325,21.301,-98.389
3.786,2.672,-2.401,-31.860,-12.939,-188.293
2.973,1.876,-2.489,-38.513,-49.377,-243.591
2.183,1.180,-2.433,-50.903,-91.248,-267.212
1.478,0.612,-2.301,-57.312,-134.399,-270.752
0.887,0.218,-2.180,-51.880,-176.453,-263.611
0.412,-0.049,-2.099,-34.241,-217.346,-254.395
0.009,-0.292,-2.001,-10.681,-256.897,-250.061
-0.318,-0.457,-1.857,11.841,-295.166,-250.610
-0.530,-0.535,-1.629,27.527,-330.017,-252.014
-0.689,-0.562,-1.351,32.654,-354.919,-249.390
-0.887,-0.536,-1.118,31.738,-364.624,-242.004
-1.080,-0.539,-0.900,26.184,-359.558,-231.750
-1.256,-0.592,-0.668,16.968,-342.712,-218.445
-1.409,-0.656,-0.376,7.385,-317.200,-201.172
-1.594,-0.719,-0.062,-2.441,-285.706,-179.016
-1.825,-0.808,0.261,-13.672,-250.671,-153.809
-2.163,-0.949,0.645,-28.870,-213.135,-128.052
-2.582,-1.333,1.182,-43.762,-172.424,-102.234
-2.889,-1.789,1.628,-36.865,-125.366,-74.890
-2.874,-2.172,1.883,-12.878,-67.444,-40.649
-2.650,-2.149,2.010,7.324,3.113,17.090
-2.504,-1.764,2.064,10.864,83.374,102.966
-2.318,-1.332,2.122,-5.127,164.795,195.129
-2.080,-0.952,2.137,-27.893,244.568,267.883
-1.887,-0.534,1.926,-42.236,324.036,309.631
-1.668,-0.095,1.469,-41.443,396.179,320.557
-1.333,0.335,0.896,-28.015,452.454,312.500
-0.814,0.768,0.283,-4.883,486.877,300.964
-0.202,1.229,-0.462,25.696,499.390,291.809
0.490,1.737,-1.390,59.631,495.605,280.151
1.260,2.176,-2.467,86.182,471.680,260.254
2.282,2.518,-3.452,99.548,424.500,226.013
2.948,2.669,-3.988,78.796,359.741,180.664
3.226,2.465,-3.994,39.246,290.161,122.559
2.915,1.934,-3.979,11.292,224.609,59.692
2.758,1.482,-3.862,24.536,159.851,1.953
2.570,1.122,-3.608,31.433,97.900,-41.382
2.358,0.786,-3.130,12.756,41.809,-67.688
2.087,0.499,-2.539,-15.991,0.366,-79.834
1.779,0.270,-1.992,-44.250,-23.621,-83.374
1.490,0.075,-1.545,-66.162,-37.781,-83.557
1.249,-0.084,-1.215,-78.979,-49.133,-81.726
1.035,-0.205,-0.970,-82.397,-62.134,-79.163
0.867,-0.309,-0.743,-75.928,-77.881,-75.989
0.725,-0.396,-0.492,-60.852,-92.651,-71.594
0.600,-0.402,-0.317,-38.025,-101.868,-64.514
0.508,-0.390,-0.216,-15.015,-106.201,-56.213
0.463,-0.389,-0.170,3.052,-106.445,-45.898
0.442,-0.388,-0.150,14.465,-103.699,-33.569
0.433,-0.375,-0.132,20.203,-98.328,-19.531
0.434,-0.349,-0.108,22.217,-90.393,-6.165
0.466,-0.320,-0.086,21.973,-80.139,5.432
0.492,-0.291,-0.089,19.531,-67.017,14.954
0.509,-0.253,-0.139,15.442,-52.246,20.752
0.529,-0.218,-0.189,9.033,-37.842,22.339
0.556,-0.190,-0.225,0.916,-25.146,20.081
0.581,-0.168,-0.269,-7.202,-14.771,14.954
0.604,-0.161,-0.311,-11.292,-8.179,7.812
0.614,-0.176,-0.338,-11.780,-6.592,-0.305
0.619,-0.207,-0.343,-9.033,-9.094,-7.141
0.630,-0.241,-0.337,-4.395,-14.404,-13.306
0.656,-0.258,-0.335,2.014,-19.592,-17.456
0.690,-0.259,-0.325,7.446,-22.644,-18.311
0.720,-0.243,-0.292,10.559,-22.522,-16.602
0.753,-0.231,-0.262,12.146,-18.250,-12.817
0.796,-0.238,-0.285,13.672,-9.521,-8.850
0.829,-0.245,-0.348,14.282,0.549,-5.981
0.845,-0.233,-0.409,11.353,8.484,-4.517
0.859,-0.215,-0.444,4.944,12.756,-4.150
0.869,-0.210,-0.445,-2.930,14.343,-5.188
0.873,-0.220,-0.436,-9.521,14.832,-7.080
0.868,-0.231,-0.438,-13.000,15.320,-9.521
0.861,-0.243,-0.438,-14.893,15.686,-11.108
0.853,-0.258,-0.436,-16.235,15.991,-11.047
0.851,-0.269,-0.440,-15.198,15.686,-8.850
0.859,-0.254,-0.447,-12.329,15.320,-4.639
0.867,-0.230,-0.459,-7.324,15.137,1.221
0.883,-0.212,-0.474,-2.869,14.648,6.409
0.894,-0.193,-0.501,0.610,13.428,10.010

1.093,-0.063,-0.298,123.596,-70.923,-36.499
1.081,-0.014,-0.222,131.653,-84.839,-49.927
1.088,0.004,-0.161,135.437,-102.966,-63.904
1.087,0.024,-0.005,146.545,-115.112,-77.087
1.070,0.025,0.020,161.865,-120.972,-90.271
1.038,0.048,0.001,175.476,-123.657,-101.624
1.012,0.055,0.003,181.030,-127.136,-110.535
0.957,0.030,-0.036,184.692,-129.272,-118.591
0.898,-0.023,-0.069,185.913,-127.258,-124.939
0.868,-0.051,-0.032,178.101,-117.126,-126.404
0.830,-0.045,-0.089,167.542,-99.548,-122.925
0.783,-0.042,-0.241,162.415,-83.740,-120.667
0.719,-0.076,-0.372,158.020,-78.613,-122.131
0.634,-0.131,-0.402,152.344,-83.191,-125.916
0.534,-0.220,-0.362,141.479,-87.158,-127.686
0.430,-0.315,-0.339,126.160,-83.801,-123.840
0.330,-0.373,-0.328,104.736,-73.242,-113.464
0.297,-0.503,-0.319,74.585,-56.702,-97.534
0.055,-0.356,-0.372,41.992,-32.898,-78.674
-0.229,-0.468,-0.434,-9.644,-11.230,-60.852
-0.528,-0.718,-0.435,-51.514,12.146,-41.870
-0.868,-1.094,-0.398,-60.120,35.095,-16.235
-1.165,-1.395,-0.476,-51.453,54.993,22.095
-1.372,-1.536,-0.598,-50.598,65.857,74.158
-1.507,-1.644,-0.656,-64.392,66.345,132.507
-1.528,-1.553,-0.634,-81.238,65.613,193.665
-1.496,-1.277,-0.625,-89.539,69.580,250.732
-1.451,-0.939,-0.608,-96.863,78.247,299.622
-1.351,-0.664,-0.524,-108.459,87.097,336.548
-1.194,-0.435,-0.391,-127.136,95.337,361.816
-0.949,-0.224,-0.157,-149.658,105.469,379.761
-0.541,0.017,0.145,-164.978,121.948,394.775
-0.053,0.448,0.380,-167.664,150.269,410.278
0.528,1.140,0.317,-157.715,190.369,427.124
1.242,2.082,0.052,-141.174,235.168,438.049
2.365,3.113,-0.280,-125.793,272.583,431.091
3.709,3.819,-0.781,-114.929,293.884,395.020
4.000,4.000,-1.278,-119.812,284.546,333.923
4.000,4.000,-1.507,-134.827,236.511,243.042
4.000,4.000,-1.606,-113.098,153.870,116.272
4.000,4.000,-1.685,-33.875,53.833,-24.658
3.999,3.780,-1.709,45.776,-40.833,-140.259
3.478,3.355,-1.633,91.003,-112.488,-218.445
2.902,2.870,-1.484,101.196,-152.893,-270.935
2.279,2.370,-1.345,84.900,-166.687,-307.739
1.656,1.874,-1.273,64.209,-166.077,-336.243
1.086,1.392,-1.250,52.979,-165.405,-359.741
0.579,0.969,-1.299,55.603,-172.119,-378.906
0.125,0.641,-1.379,71.411,-188.171,-392.395
-0.277,0.392,-1.407,85.205,-210.388,-398.682
-0.627,0.141,-1.335,87.219,-233.337,-396.851
-0.905,-0.054,-1.216,80.383,-249.634,-386.047
-1.176,-0.247,-1.061,64.941,-252.625,-365.173
-1.471,-0.486,-0.869,40.466,-238.342,-334.290
-1.755,-0.820,-0.692,15.747,-205.811,-295.044
-2.088,-1.161,-0.567,-6.531,-159.424,-248.657
-2.492,-1.502,-0.423,-26.855,-108.032,-195.679
-2.827,-1.893,-0.308,-40.161,-58.044,-140.198
-2.973,-2.344,-0.216,-44.739,-14.587,-77.148
-2.951,-2.404,-0.194,-39.063,20.935,-1.221
-2.769,-2.241,-0.183,-41.016,48.828,79.773
-2.507,-1.947,-0.150,-53.894,71.289,160.828
-2.211,-1.659,-0.009,-69.031,90.210,232.483
-1.933,-1.381,0.086,-82.397,108.154,287.354
-1.637,-1.075,0.115,-88.745,123.596,325.317
-1.281,-0.792,0.165,-94.910,134.949,349.548
-0.843,-0.464,0.174,-105.774,148.865,367.004
-0.299,-0.176,0.255,-121.582,164.795,383.362
0.345,0.404,0.279,-122.803,186.951,397.766
1.118,1.172,0.229,-130.920,225.159,406.128
1.927,2.099,0.025,-139.771,261.780,403.809
2.947,3.148,-0.540,-117.920,296.143,385.437
3.915,3.975,-1.208,-99.426,306.702,346.741
4.000,4.000,-1.619,-105.713,278.442,285.339
4.000,4.000,-1.929,-99.731,215.454,193.665
4.000,4.000,-2.045,-80.139,128.723,74.524
4.000,3.671,-2.028,-42.114,42.419,-46.387
3.565,3.130,-2.034,-1.221,-23.376,-139.282
3.015,2.540,-2.000,26.367,-70.679,-197.388
2.492,2.013,-1.872,34.058,-104.370,-229.614
1.979,1.582,-1.703,28.198,-125.488,-246.887
1.520,1.187,-1.555,18.127,-138.367,-259.033
1.099,0.834,-1.439,9.155,-148.743,-270.081
0.715,0.553,-1.341,2.563,-160.767,-278.198
0.407,0.369,-1.277,2.869,-174.927,-281.494
0.176,0.276,-1.230,13.977,-190.918,-279.358
-0.054,0.175,-1.307,30.884,-211.426,-272.705
-0.255,0.135,-1.297,47.241,-237.244,-264.893
-0.368,0.005,-1.121,47.485,-262.512,-257.812
-0.471,-0.071,-0.909,37.354,-276.672,-248.413
-0.616,-0.114,-0.739,25.757,-275.635,-236.084
-0.776,-0.212,-0.533,14.526,-262.878,-223.755
-0.963,-0.336,-0.285,4.883,-239.807,-211.548
-1.203,-0.491,0.001,-1.709,-206.604,-198.486
-1.491,-0.721,0.317,-13.306,-166.626,-184.692
-1.811,-1.071,0.596,-30.029,-124.939,-170.044
-2.100,-1.469,0.784,-45.715,-87.524,-151.978
-2.314,-1.816,0.900,-49.927,-56.458,-126.465
-2.384,-2.101,1.100,-43.762,-27.832,-87.463
-2.372,-2.283,1.308,-36.499,6.592,-26.978
-2.302,-2.253,1.398,-27.039,54.138,53.345
-2.224,-2.048,1.364,-14.099,108.643,141.296
-2.058,-1.761,1.180,-3.906,159.119,221.130
-1.874,-1.324,0.877,4.700,197.083,283.325
-1.600,-0.790,0.579,9.399,219.910,326.111
-1.255,-0.340,0.411,6.897,233.887,348.938
-0.840,-0.035,0.260,1.709,246.643,357.910
-0.369,0.250,0.060,0.671,263.550,361.694
0.109,0.648,-0.281,4.883,284.485,365.601
0.423,1.220,-0.797,14.282,303.833,367.126
1.039,1.992,-1.559,38.940,309.875,356.018
2.046,2.925,-2.303,81.055,293.091,328.186
2.920,3.568,-2.771,115.784,249.451,283.752
3.370,3.786,-2.893,104.675,183.838,228.882
3.434,3.560,-2.691,44.373,115.906,164.795
3.452,2.999,-2.212,-14.954,70.557,96.619
3.298,2.437,-1.726,-43.213,59.448,36.987
2.988,1.917,-1.402,-60.852,68.909,-5.066
2.631,1.426,-1.142,-83.313,74.585,-32.043
2.260,0.964,-0.853,-104.492,65.369,-47.241
1.904,0.562,-0.579,-115.967,40.588,-56.335
1.577,0.311,-0.393,-100.891,5.066,-64.453
1.341,0.189,-0.258,-61.951,-35.583,-74.890
1.191,0.142,-0.134,-16.235,-72.815,-86.121
1.085,0.122,-0.048,20.386,-95.459,-93.994
0.986,0.072,0.005,36.987,-101.685,-95.947
0.883,0.011,0.019,35.400,-94.727,-91.370
0.788,-0.019,-0.015,26.367,-79.529,-82.397
0.716,-0.040,-0.052,16.235,-61.462,-71.960
0.659,-0.074,-0.094,7.812,-44.312,-62.561
0.614,-0.089,-0.149,3.296,-29.602,-54.810
0.579,-0.092,-0.211,0.488,-18.738,-50.293
0.559,-0.096,-0.264,-0.488,-11.963,-48.645
0.545,-0.122,-0.296,1.709,-10.010,-48.950
0.531,-0.170,-0.313,7.019,-12.329,-49.500
0.504,-0.210,-0.316,17.212,-18.372,-49.011
0.496,-0.223,-0.298,29.480,-26.367,-46.509
0.517,-0.214,-0.274,38.635,-31.921,-42.480
0.547,-0.204,-0.271,42.725,-32.288,-36.865
0.566,-0.184,-0.279,40.527,-27.832,-30.396
0.578,-0.156,-0.281,31.677,-19.958,-23.437
0.608,-0.127,-0.268,20.630,-9.338,-16.968
0.654,-0.101,-0.261,11.780,2.991,-11.108
0.709,-0.109,-0.254,5.005,16.602,-7.263
0.734,-0.119,-0.285,1.343,28.748,-5.188
0.736,-0.092,-0.370,0.183,36.560,-4.272
0.762,-0.075,-0.417,0.061,37.659,-4.395
0.799,-0.078,-0.415,-0.916,33.813,-4.883
0.832,-0.070,-0.397,-0.061,29.358,-4.822

1.127,0.103,-0.949,29.602,-53.040,37.109
1.106,0.190,-0.809,44.128,-74.829,47.729
1.007,0.251,-0.682,55.298,-95.947,53.528
0.937,0.244,-0.512,50.354,-114.441,55.420
0.898,0.222,-0.347,38.818,-130.432,57.373
0.887,0.102,-0.224,22.400,-142.639,62.195
0.877,0.044,-0.136,7.935,-150.085,72.876
0.798,0.088,-0.078,0.305,-151.855,88.806
0.721,0.162,-0.079,-2.258,-147.888,103.882
0.639,0.247,-0.030,1.526,-140.930,112.854
0.550,0.230,0.038,3.906,-134.216,113.953
0.511,0.174,0.118,5.798,-128.479,111.755
0.461,0.105,0.212,6.592,-122.986,112.000
0.387,0.099,0.292,5.920,-116.089,118.164
0.285,0.153,0.433,5.432,-106.445,127.075
0.156,0.227,0.548,0.854,-92.346,134.705
-0.008,0.343,0.658,-6.897,-75.073,138.062
-0.205,0.477,0.737,-11.780,-53.955,135.254
-0.396,0.608,0.845,-20.691,-32.593,126.831
-0.643,0.767,0.907,-27.954,-12.207,114.624
-0.937,1.055,0.941,-36.011,8.240,99.731
-1.261,1.006,0.953,-33.936,26.917,76.233
-1.388,1.072,0.976,-13.855,45.044,54.504
-1.266,1.693,1.063,4.272,70.374,35.461
-1.506,1.750,1.107,-13.550,101.807,-15.442
-1.583,1.727,0.997,-35.461,138.855,-78.430
-1.538,1.503,0.828,-57.495,176.575,-143.738
-1.505,1.243,0.609,-71.045,214.417,-205.017
-1.453,1.018,0.318,-74.158,254.211,-257.874
-1.386,0.773,-0.008,-69.580,293.030,-305.054
-1.307,0.434,-0.412,-60.547,322.632,-346.680
-1.268,0.060,-0.795,-46.875,334.839,-379.028
-1.114,-0.312,-1.000,-25.452,330.200,-399.597
-0.809,-0.586,-1.100,-0.732,321.106,-403.564
-0.516,-0.762,-1.250,10.437,312.439,-390.442
-0.036,-0.934,-1.259,-3.662,297.668,-367.187
0.380,-1.102,-1.628,-46.021,304.321,-343.567
0.880,-1.420,-1.995,-122.864,302.979,-327.637
1.490,-1.794,-2.744,-207.764,279.358,-321.228
2.336,-2.475,-3.665,-265.503,240.784,-324.829
3.361,-3.104,-4.000,-265.808,175.110,-329.529
4.000,-3.588,-4.000,-191.650,101.685,-310.242
4.000,-3.558,-3.822,-61.462,40.894,-255.310
4.000,-2.993,-3.249,60.181,-4.883,-170.532
3.952,-2.424,-2.876,114.624,-50.415,-80.688
3.297,-2.054,-2.705,107.788,-107.178,-8.911
2.609,-1.738,-2.401,79.468,-177.307,47.852
1.969,-1.395,-2.010,53.955,-251.282,97.046
1.355,-1.090,-1.672,28.320,-315.186,138.916
0.811,-0.838,-1.395,-1.648,-366.516,170.654
0.407,-0.659,-1.144,-29.480,-404.297,189.392
0.138,-0.561,-0.907,-47.913,-427.124,197.021
-0.033,-0.523,-0.723,-56.030,-432.678,199.097
-0.121,-0.578,-0.583,-58.350,-425.110,201.721
-0.171,-0.664,-0.442,-54.504,-409.851,211.121
-0.246,-0.718,-0.251,-42.480,-385.498,230.774
-0.374,-0.692,-0.039,-26.611,-349.976,258.911
-0.582,-0.609,0.148,-13.794,-305.664,290.771
-0.906,-0.422,0.311,-9.827,-256.897,320.618
-1.247,-0.073,0.540,-5.188,-203.003,340.332
-1.583,0.296,0.791,5.493,-140.503,346.741
-1.950,0.729,1.078,21.545,-69.092,345.642
-2.297,1.367,1.259,38.208,8.057,339.355
-2.704,2.117,1.322,45.654,83.252,316.711
-3.016,2.819,1.294,44.556,146.179,258.423
-3.216,3.124,1.261,35.034,193.054,152.832
-3.229,2.955,1.144,8.850,227.173,9.277
-2.990,2.340,0.869,-32.532,253.723,-143.311
-2.570,1.445,0.476,-78.491,274.841,-273.132
-2.106,0.482,0.022,-116.211,291.016,-362.732
-1.641,-0.416,-0.473,-141.357,303.101,-409.607
-1.080,-1.053,-0.920,-145.935,309.875,-424.438
