aX,aY,aZ,gX,gY,gZ
0.741,-0.177,-1.050,-11.658,-22.400,-20.508
0.796,-0.268,-0.893,-7.263,-29.175,-9.155
0.741,-0.202,-0.790,0.610,-29.480,0.305
0.671,-0.146,-0.724,1.526,-24.597,5.432
0.648,-0.127,-0.757,0.671,-17.151,5.188
0.646,-0.149,-0.796,4.272,-11.169,1.282
0.647,-0.192,-0.765,15.320,-7.629,-2.197
0.657,-0.234,-0.733,30.640,-3.723,-2.808
0.650,-0.305,-0.642,46.082,1.343,0.122
0.614,-0.306,-0.501,59.204,7.996,7.446
0.570,-0.231,-0.400,60.547,17.151,18.311
0.506,-0.148,-0.420,48.096,27.588,28.076
0.464,-0.083,-0.489,35.217,35.889,33.020
0.411,-0.049,-0.514,31.189,40.771,31.860
0.351,-0.048,-0.494,34.790,44.067,26.917
0.370,-0.041,-0.369,40.405,47.485,21.545
0.265,-0.068,-0.361,41.443,52.673,17.517
0.234,-0.118,-0.292,43.030,60.059,15.808
0.223,-0.136,-0.244,40.161,67.139,17.822
0.196,-0.154,-0.210,31.067,73.486,22.522
0.169,-0.159,-0.166,18.860,77.576,29.114
0.144,-0.081,-0.128,5.554,80.383,36.377
0.091,0.025,-0.092,-6.226,83.618,40.833
0.036,0.123,-0.066,-18.799,88.318,40.771
-0.010,0.199,-0.055,-31.250,95.215,35.339
-0.049,0.235,-0.075,-42.053,104.248,24.719
-0.075,0.217,-0.109,-48.828,114.502,10.498
-0.073,0.161,-0.172,-50.354,125.305,-3.479
-0.019,0.023,-0.263,-49.500,135.254,-14.343
0.055,-0.129,-0.338,-45.288,143.311,-18.433
0.086,-0.183,-0.387,-35.706,150.452,-11.902
0.084,-0.189,-0.413,-27.832,156.677,3.235
0.050,-0.137,-0.478,-25.635,161.438,22.156
0.015,-0.066,-0.602,-28.809,164.185,37.598
-0.003,-0.030,-0.727,-33.997,163.452,44.678
-0.025,-0.027,-0.824,-36.682,160.217,44.922
-0.049,-0.061,-0.947,-37.964,157.471,41.870
-0.027,-0.104,-1.067,-35.278,157.043,39.307
-0.003,-0.165,-1.214,-27.588,159.180,40.833
0.013,-0.182,-1.351,-13.611,162.476,45.776
0.016,-0.145,-1.419,6.165,163.757,51.819
0.002,-0.071,-1.430,24.475,162.231,58.716
-0.031,0.008,-1.445,34.607,158.875,66.589
-0.064,0.089,-1.506,36.377,154.541,73.547
-0.095,0.175,-1.571,34.729,148.376,77.637
-0.141,0.263,-1.646,33.020,140.381,77.637
-0.171,0.331,-1.730,30.518,130.188,74.463
-0.178,0.359,-1.783,27.527,118.408,68.298
-0.172,0.357,-1.827,24.414,105.652,60.913
-0.153,0.325,-1.903,20.386,94.299,53.345
-0.118,0.282,-2.010,18.555,85.022,46.997
-0.074,0.264,-2.099,21.118,76.477,42.419
-0.033,0.217,-2.173,24.719,68.359,39.185
0.028,0.123,-2.212,23.804,63.049,40.710
-0.016,0.058,-2.470,27.100,64.209,46.082
-0.030,0.178,-2.551,53.955,52.734,44.617
-0.051,0.186,-2.499,69.458,30.151,38.574
-0.071,0.132,-2.432,68.604,6.409,34.424
-0.086,0.095,-2.377,62.195,-15.442,34.424
-0.096,0.083,-2.353,52.856,-36.560,37.598
-0.114,0.079,-2.314,46.143,-57.556,41.626
-0.146,0.068,-2.212,44.189,-78.003,45.471
-0.176,0.060,-2.081,45.166,-95.459,48.218
-0.197,0.056,-1.951,45.959,-107.910,49.866
-0.226,0.061,-1.842,47.058,-115.906,50.903
-0.262,0.009,-1.831,47.058,-120.850,51.514
-0.236,0.028,-1.789,51.636,-126.343,52.612
-0.283,0.006,-1.706,56.519,-132.202,54.321
-0.303,0.031,-1.636,62.378,-135.437,55.969
-0.307,0.071,-1.572,68.542,-139.343,55.542
-0.312,0.058,-1.491,70.129,-143.555,52.307
-0.301,0.057,-1.400,70.984,-148.193,48.584
-0.282,0.047,-1.341,69.092,-152.954,45.776
-0.258,0.027,-1.292,66.406,-158.081,44.983
-0.247,0.019,-1.231,66.101,-163.879,46.082
-0.238,0.029,-1.146,67.200,-169.861,48.096
-0.219,0.030,-1.089,65.063,-174.622,50.659
-0.189,0.034,-1.047,60.547,-178.833,53.894
-0.165,0.042,-1.001,58.716,-182.556,58.472
-0.155,0.043,-0.926,60.364,-185.059,63.477
-0.150,0.063,-0.849,61.707,-184.814,68.054
-0.140,0.100,-0.821,61.218,-182.434,72.327
-0.121,0.138,-0.810,60.181,-179.565,74.890
-0.109,0.171,-0.779,59.814,-177.368,75.745
-0.098,0.200,-0.736,61.523,-175.537,75.806
-0.089,0.214,-0.667,63.171,-174.072,75.195
-0.073,0.228,-0.601,62.378,-172.791,75.012
-0.046,0.253,-0.537,59.875,-172.058,76.050
-0.022,0.260,-0.499,54.504,-171.448,78.186
-0.007,0.263,-0.455,47.302,-170.349,80.872
-0.007,0.292,-0.399,42.664,-169.556,84.412
-0.009,0.347,-0.322,41.077,-167.664,87.463
-0.013,0.392,-0.241,39.246,-163.269,89.050
-0.007,0.435,-0.187,37.048,-155.762,88.745
-0.001,0.464,-0.147,37.354,-146.118,87.341
0.007,0.504,-0.085,39.490,-135.010,85.571
0.013,0.557,-0.034,42.419,-122.253,83.740
0.021,0.612,0.012,44.678,-108.704,81.299
0.019,0.669,0.062,45.410,-96.863,77.820
0.009,0.730,0.105,42.786,-86.975,73.059
0.002,0.776,0.134,36.316,-78.552,66.345
0.005,0.812,0.152,28.137,-70.923,58.105
0.017,0.834,0.154,20.325,-63.416,48.828
0.033,0.839,0.147,13.794,-54.993,39.734
0.050,0.833,0.123,8.606,-45.837,31.616
0.078,0.813,0.082,4.761,-36.621,25.391
0.097,0.801,0.053,2.197,-28.809,21.057
0.104,0.819,0.040,0.854,-23.010,18.799
0.102,0.854,0.030,-1.831,-18.738,16.602
0.116,0.876,0.011,-8.301,-15.808,12.756
0.138,0.883,-0.044,-16.296,-12.451,7.385
0.162,0.892,-0.103,-21.240,-9.888,0.488
0.191,0.885,-0.132,-24.048,-7.080,-5.981
0.220,0.866,-0.169,-26.855,-3.052,-12.085
0.258,0.845,-0.232,-28.687,2.319,-18.005
0.302,0.824,-0.291,-27.405,7.385,-23.437
0.343,0.776,-0.360,-24.719,11.597,-28.748
0.398,0.714,-0.436,-22.644,15.198,-32.410
0.459,0.672,-0.497,-19.470,17.029,-33.020
0.494,0.652,-0.522,-14.526,16.724,-30.945
0.503,0.653,-0.523,-9.399,15.320,-27.893
0.512,0.670,-0.523,-6.348,14.221,-25.146
0.521,0.685,-0.546,-5.493,14.221,-23.560
0.530,0.681,-0.574,-5.005,14.893,-24.109
0.544,0.666,-0.578,-3.113,15.320,-25.818
0.559,0.661,-0.573,-0.488,15.869,-27.405
0.570,0.641,-0.583,0.671,16.541,-28.259
0.590,0.615,-0.609,-0.061,17.029,-27.954
0.611,0.606,-0.627,-0.427,16.846,-26.733
0.620,0.594,-0.634,0.732,15.564,-25.269
0.618,0.570,-0.641,1.526,14.160,-23.132
0.613,0.559,-0.638,2.747,13.428,-20.508
0.607,0.566,-0.634,4.944,13.428,-17.395
0.600,0.580,-0.641,6.165,13.367,-14.954
0.591,0.590,-0.642,6.104,12.634,-13.428
0.575,0.596,-0.631,5.310,11.230,-12.512
0.564,0.606,-0.624,4.395,9.399,-12.024
0.559,0.616,-0.621,2.869,7.874,-12.207
0.550,0.618,-0.618,1.770,6.958,-13.123
0.543,0.609,-0.616,1.526,6.836,-14.465
0.546,0.583,-0.623,1.343,7.080,-15.747
0.562,0.551,-0.636,1.221,7.690,-15.686
0.576,0.546,-0.646,1.770,7.690,-13.306
0.571,0.552,-0.637,2.014,7.019,-10.254
0.554,0.565,-0.633,0.549,6.165,-7.996
0.543,0.579,-0.643,-1.770,5.371,-6.653
0.535,0.585,-0.645,-3.052,4.517,-6.836
0.528,0.584,-0.635,-2.869,4.028,-7.812
0.527,0.579,-0.632,-3.113,4.028,-9.155

-0.091,0.872,-0.540,-5.981,-3.662,3.052
-0.065,0.838,-0.518,-10.132,-6.470,1.282
-0.065,0.876,-0.528,-8.728,-9.644,-1.038
-0.090,0.850,-0.523,-10.864,-9.583,-2.014
-0.085,0.847,-0.524,-9.888,-9.277,-2.686
-0.074,0.840,-0.507,-5.432,-8.362,-4.333
-0.062,0.845,-0.491,-1.831,-7.263,-5.493
-0.050,0.804,-0.515,-1.648,-6.653,-6.531
-0.008,0.724,-0.539,-1.831,-8.362,-6.958
0.001,0.670,-0.536,-1.343,-13.000,-4.395
-0.010,0.690,-0.527,-3.662,-19.775,2.380
-0.023,0.771,-0.480,-6.714,-25.818,8.972
-0.042,0.793,-0.436,-10.925,-28.259,9.644
-0.030,0.741,-0.408,-14.832,-27.039,5.676
0.003,0.667,-0.401,-15.747,-22.827,2.380
0.025,0.596,-0.383,-14.038,-16.663,1.770
0.028,0.572,-0.351,-12.268,-9.399,4.517
0.018,0.577,-0.360,-14.465,-2.380,8.484
0.004,0.578,-0.383,-18.127,3.479,11.108
-0.008,0.542,-0.419,-20.935,7.874,11.963
-0.013,0.490,-0.457,-22.339,10.742,13.000
-0.015,0.463,-0.531,-23.193,12.634,16.174
0.006,0.418,-0.514,-23.254,13.916,22.095
-0.002,0.428,-0.491,-13.977,11.902,29.602
-0.038,0.469,-0.443,-5.737,10.925,37.781
-0.083,0.491,-0.406,-4.089,12.390,44.617
-0.115,0.507,-0.397,-7.263,13.916,49.255
-0.133,0.524,-0.404,-12.268,14.404,51.392
-0.140,0.541,-0.399,-17.273,14.282,52.063
-0.145,0.539,-0.393,-21.912,14.832,52.246
-0.152,0.526,-0.418,-26.672,17.395,52.551
-0.162,0.494,-0.493,-28.076,22.034,55.664
-0.174,0.450,-0.586,-23.560,26.184,62.378
-0.198,0.489,-0.596,-13.123,27.344,72.937
-0.253,0.533,-0.585,-5.737,26.978,83.557
-0.305,0.597,-0.595,-2.625,24.841,92.163
-0.366,0.665,-0.585,-3.540,20.081,98.083
-0.433,0.742,-0.561,-6.226,14.404,100.159
-0.481,0.831,-0.552,-11.292,10.132,99.060
-0.512,0.889,-0.581,-18.250,8.240,95.520
-0.529,0.914,-0.605,-22.705,8.118,89.905
-0.541,0.918,-0.621,-21.729,9.216,83.313
-0.540,0.922,-0.638,-18.005,11.353,77.454
-0.541,0.947,-0.648,-13.916,13.855,73.730
-0.547,0.979,-0.655,-10.254,15.747,71.106
-0.554,1.004,-0.662,-7.751,16.418,68.359
-0.567,1.012,-0.690,-6.958,15.442,64.819
-0.566,1.035,-0.718,-8.240,12.573,60.364
-0.559,1.070,-0.734,-10.742,7.568,56.030
-0.554,1.102,-0.752,-13.855,1.343,51.147
-0.546,1.122,-0.764,-16.479,-4.761,46.326
-0.530,1.125,-0.766,-17.395,-10.071,40.222
-0.517,1.118,-0.756,-15.625,-13.428,33.630
-0.495,1.120,-0.750,-12.512,-14.038,27.954
-0.464,1.131,-0.754,-9.094,-12.085,23.254
-0.434,1.125,-0.781,-4.761,-8.850,18.066
-0.402,1.107,-0.817,0.244,-4.883,13.062
-0.377,1.083,-0.859,4.944,-1.038,8.667
-0.370,1.063,-0.925,8.728,1.648,5.798
-0.362,1.043,-1.016,11.780,2.136,4.822
-0.345,1.045,-1.101,15.381,-0.305,5.615
-0.339,1.070,-1.163,19.775,-6.165,5.981
-0.338,1.083,-1.203,23.315,-14.709,4.578
-0.327,1.083,-1.223,25.085,-25.330,1.221
-0.317,1.064,-1.254,26.123,-35.095,-3.479
-0.310,1.033,-1.285,28.259,-43.152,-7.935
-0.303,1.000,-1.293,33.142,-49.927,-12.329
-0.306,0.964,-1.283,40.222,-55.481,-16.541
-0.323,0.924,-1.251,47.607,-60.791,-19.592
-0.347,0.878,-1.232,52.856,-65.796,-21.484
-0.359,0.846,-1.226,54.932,-71.350,-21.606
-0.381,0.845,-1.208,57.312,-78.552,-20.020
-0.420,0.849,-1.172,59.998,-87.036,-18.494
-0.456,0.862,-1.113,63.293,-95.642,-17.700
-0.485,0.864,-1.037,66.895,-104.065,-18.860
-0.497,0.856,-0.944,70.007,-111.877,-22.278
-0.495,0.853,-0.832,71.960,-118.469,-25.818
-0.484,0.860,-0.743,70.740,-122.742,-28.015
-0.478,0.839,-0.704,66.467,-124.390,-29.785
-0.475,0.837,-0.684,64.209,-125.488,-30.701
-0.475,0.842,-0.637,65.674,-127.502,-33.020
-0.455,0.847,-0.570,66.589,-129.150,-35.278
-0.435,0.858,-0.503,66.040,-130.371,-35.583
-0.431,0.867,-0.428,64.087,-131.714,-34.851
-0.430,0.885,-0.361,58.960,-132.812,-35.095
-0.410,0.907,-0.329,50.720,-132.324,-36.377
-0.387,0.904,-0.328,41.687,-130.249,-38.330
-0.363,0.877,-0.359,34.241,-126.709,-40.771
-0.342,0.845,-0.382,31.860,-122.742,-42.480
-0.332,0.824,-0.387,34.058,-119.934,-43.396
-0.310,0.814,-0.367,38.147,-118.530,-44.006
-0.285,0.813,-0.328,41.565,-117.188,-44.922
-0.255,0.804,-0.314,41.931,-115.662,-46.387
-0.222,0.765,-0.306,39.734,-113.708,-48.340
-0.183,0.720,-0.315,37.109,-112.366,-49.194
-0.143,0.678,-0.326,35.706,-111.633,-48.157
-0.114,0.657,-0.317,38.208,-110.962,-44.617
-0.092,0.640,-0.297,42.664,-110.168,-39.917
-0.072,0.644,-0.262,45.959,-109.192,-34.729
-0.052,0.693,-0.225,47.974,-107.849,-29.846
-0.041,0.733,-0.220,46.448,-105.957,-26.733
-0.038,0.732,-0.224,43.091,-104.187,-26.123
-0.031,0.714,-0.242,41.748,-101.379,-26.733
-0.003,0.690,-0.253,43.030,-97.168,-27.710
0.014,0.667,-0.242,46.082,-92.163,-27.954
0.017,0.652,-0.242,48.035,-87.585,-25.940
0.023,0.665,-0.242,50.110,-83.740,-21.606
0.026,0.689,-0.248,52.490,-80.872,-16.541
0.028,0.711,-0.236,54.504,-80.017,-13.367
0.025,0.743,-0.214,55.420,-80.139,-10.986
0.023,0.771,-0.196,53.711,-81.543,-9.949
0.026,0.779,-0.165,51.514,-83.008,-9.888
0.048,0.807,-0.133,50.598,-83.313,-11.169
0.074,0.806,-0.139,48.157,-81.909,-13.367
0.092,0.773,-0.143,47.180,-78.857,-15.442
0.106,0.753,-0.134,49.255,-75.195,-16.174
0.115,0.737,-0.116,52.490,-71.777,-15.686
0.119,0.734,-0.078,56.641,-68.420,-13.489
0.104,0.730,-0.051,58.655,-64.636,-10.315
0.097,0.736,-0.045,56.885,-60.791,-6.226
0.084,0.780,-0.048,54.871,-58.228,-2.136
0.064,0.835,-0.028,52.917,-58.044,1.160
0.039,0.887,0.014,49.683,-60.425,1.648
0.025,0.923,0.061,44.373,-63.293,-0.305
0.024,0.938,0.104,36.987,-65.552,-3.906
0.029,0.935,0.133,28.687,-66.345,-7.935
0.046,0.914,0.156,21.362,-65.979,-12.207
0.070,0.893,0.185,16.235,-63.904,-15.625
0.098,0.890,0.215,12.878,-60.425,-17.212
0.121,0.877,0.233,9.705,-55.542,-17.639
0.137,0.858,0.247,5.798,-49.072,-17.151
0.148,0.854,0.239,2.319,-41.321,-15.564
0.170,0.857,0.210,0.061,-33.508,-13.245
0.175,0.864,0.183,-0.549,-26.611,-10.681
0.166,0.885,0.160,-0.244,-20.813,-8.301
0.164,0.902,0.143,-0.244,-17.029,-8.118
0.170,0.906,0.137,-1.343,-15.198,-9.705
0.175,0.895,0.143,-2.747,-14.587,-11.658
0.193,0.885,0.158,-6.104,-14.221,-13.000
0.206,0.875,0.159,-10.437,-13.062,-13.367
0.214,0.870,0.141,-15.015,-11.169,-12.390
0.221,0.865,0.113,-18.494,-8.362,-10.742
0.219,0.864,0.099,-19.287,-5.371,-9.521
0.238,0.882,0.076,-18.738,-2.075,-8.423
0.243,0.877,0.036,-19.165,1.587,-6.531
0.242,0.887,-0.006,-19.409,3.784,-4.822
0.242,0.902,-0.031,-16.357,4.211,-3.540
0.247,0.913,-0.034,-13.550,4.089,-3.357
0.253,0.923,-0.031,-11.658,3.113,-3.418

0.604,-0.214,-0.918,-18.860,41.870,5.920
0.645,-0.153,-0.878,-16.113,28.992,30.396
0.544,0.043,-0.791,-1.282,16.052,48.584
0.454,0.157,-0.640,7.874,9.949,53.833
0.436,0.182,-0.541,7.751,9.277,48.218
0.447,0.095,-0.485,4.578,11.597,39.612
0.470,0.005,-0.462,0.854,13.306,35.522
0.484,-0.064,-0.422,-1.404,14.771,38.086
0.486,-0.134,-0.374,0.244,17.334,44.678
0.476,-0.184,-0.260,5.066,20.447,54.199
0.429,-0.177,-0.128,8.057,25.757,66.467
0.378,-0.122,-0.080,4.822,35.095,79.956
0.328,-0.084,-0.054,-0.549,46.814,90.393
0.286,-0.028,-0.042,-5.005,58.044,96.619
0.279,-0.002,-0.051,-11.230,67.261,99.426
0.281,-0.029,-0.062,-18.127,74.402,100.647
0.270,-0.119,-0.098,-27.222,82.031,103.638
0.250,-0.152,-0.146,-30.090,91.064,111.328
0.199,-0.111,-0.115,-21.545,98.267,121.277
0.132,-0.047,-0.111,-15.320,106.873,133.240
0.059,0.016,-0.156,-15.930,116.455,144.653
0.002,0.089,-0.211,-21.729,125.061,153.687
-0.087,0.180,-0.306,-27.649,135.620,160.217
-0.120,0.216,-0.330,-42.236,139.954,164.124
-0.179,0.286,-0.436,-49.561,142.761,166.016
-0.227,0.357,-0.542,-52.856,145.325,166.992
-0.281,0.434,-0.633,-54.199,146.118,168.030
-0.319,0.526,-0.695,-54.810,145.325,168.457
-0.333,0.664,-0.731,-55.786,143.738,169.006
-0.394,0.711,-0.837,-63.965,144.165,168.274
-0.448,0.718,-0.971,-65.186,144.348,166.504
-0.443,0.838,-1.036,-56.885,139.343,169.250
-0.491,0.857,-1.140,-61.951,135.803,172.302
-0.551,0.875,-1.319,-66.589,135.193,173.340
-0.597,0.927,-1.463,-56.458,129.761,172.729
-0.640,1.017,-1.509,-39.612,118.591,169.861
-0.679,1.136,-1.521,-24.048,106.506,164.612
-0.704,1.219,-1.533,-14.648,96.008,155.640
-0.717,1.265,-1.546,-10.803,86.365,142.822
-0.702,1.301,-1.589,-10.315,77.332,127.808
-0.670,1.299,-1.650,-10.559,67.627,112.610
-0.639,1.252,-1.694,-9.216,56.580,97.473
-0.608,1.205,-1.705,-3.845,45.166,84.473
-0.571,1.180,-1.713,2.686,35.095,74.585
-0.546,1.144,-1.742,8.545,26.794,66.711
-0.527,1.114,-1.788,15.137,18.921,60.852
-0.504,1.129,-1.815,23.254,10.437,56.458
-0.509,1.143,-1.783,31.616,1.099,50.720
-0.522,1.145,-1.775,35.278,-8.301,43.335
-0.517,1.139,-1.826,34.180,-17.761,35.583
-0.520,1.125,-1.873,34.241,-28.137,28.198
-0.528,1.084,-1.921,38.513,-39.673,19.897
-0.527,1.000,-1.968,45.532,-52.368,11.108
-0.516,0.904,-1.997,54.932,-67.505,4.883
-0.503,0.881,-1.949,66.223,-85.938,1.770
-0.508,0.873,-1.835,77.087,-106.384,-0.793
-0.500,0.857,-1.718,83.496,-124.878,-3.967
-0.476,0.833,-1.611,87.830,-139.526,-8.667
-0.450,0.772,-1.523,91.492,-150.513,-15.320
-0.420,0.717,-1.437,97.046,-158.569,-21.545
-0.401,0.668,-1.323,104.065,-163.940,-25.879
-0.392,0.625,-1.209,109.741,-167.297,-28.198
-0.366,0.563,-1.130,111.633,-169.556,-29.480
-0.325,0.522,-1.064,111.267,-171.082,-27.893
-0.303,0.535,-0.993,111.572,-172.424,-23.254
-0.314,0.571,-0.898,113.037,-173.340,-18.860
-0.332,0.606,-0.815,113.403,-173.340,-16.602
-0.335,0.635,-0.739,111.694,-172.363,-17.273
-0.326,0.631,-0.708,109.375,-169.617,-20.569
-0.299,0.545,-0.724,107.422,-165.894,-24.658
-0.263,0.480,-0.711,108.765,-163.513,-25.879
-0.243,0.471,-0.663,114.014,-163.452,-23.193
-0.235,0.500,-0.587,116.699,-164.978,-18.066
-0.246,0.543,-0.520,113.403,-166.626,-13.000
-0.252,0.582,-0.484,107.361,-168.640,-10.376
-0.245,0.612,-0.434,101.868,-171.143,-10.559
-0.237,0.618,-0.374,97.351,-173.035,-13.184
-0.210,0.620,-0.319,93.201,-172.852,-16.418
-0.186,0.622,-0.272,89.966,-169.800,-19.104
-0.164,0.612,-0.222,89.355,-164.856,-20.996
-0.136,0.573,-0.209,88.562,-157.959,-21.240
-0.110,0.537,-0.185,87.280,-151.245,-19.592
-0.107,0.535,-0.116,87.280,-146.790,-15.442
-0.111,0.571,-0.044,86.121,-143.372,-9.644
-0.107,0.635,0.033,82.703,-140.747,-5.249
-0.099,0.696,0.111,76.477,-136.780,-3.235
-0.094,0.731,0.156,68.298,-129.578,-3.906
-0.072,0.755,0.178,61.340,-119.080,-6.714
-0.048,0.772,0.186,57.922,-106.567,-11.475
-0.026,0.746,0.193,57.007,-94.238,-17.639
0.008,0.670,0.188,54.688,-83.191,-23.193
0.054,0.579,0.167,50.354,-75.500,-24.414
0.086,0.540,0.164,46.875,-71.045,-19.470
0.091,0.553,0.193,44.922,-68.787,-10.254
0.081,0.616,0.212,41.077,-66.833,-1.709
0.068,0.691,0.221,35.400,-64.392,3.723
0.055,0.756,0.243,31.067,-61.707,3.845
0.059,0.791,0.282,27.283,-59.021,-0.610
0.069,0.795,0.308,20.935,-55.054,-6.470
0.092,0.768,0.299,12.451,-49.927,-12.451
0.125,0.711,0.299,5.737,-43.823,-17.029
0.150,0.663,0.306,2.808,-36.377,-18.494
0.175,0.640,0.289,1.953,-26.489,-16.174
0.196,0.653,0.248,2.563,-15.808,-11.230
0.189,0.672,0.200,2.869,-7.080,-5.859
0.183,0.728,0.175,3.845,-1.282,-1.831
0.174,0.788,0.151,2.625,1.831,0.000
0.164,0.833,0.125,-0.610,2.991,-1.160
0.166,0.862,0.117,-5.493,2.686,-4.272
0.183,0.860,0.089,-13.489,1.160,-8.545
0.211,0.831,0.037,-21.851,-0.183,-12.390
0.237,0.798,-0.005,-27.283,-0.916,-13.184
0.257,0.779,-0.045,-27.344,-0.916,-11.475
0.270,0.770,-0.078,-24.353,0.366,-7.263
0.271,0.803,-0.089,-19.348,1.831,-2.319
0.271,0.874,-0.080,-14.038,3.235,2.258
0.265,0.931,-0.073,-10.986,5.310,4.395
0.269,0.967,-0.080,-10.925,7.507,3.479
0.279,0.971,-0.103,-12.756,10.315,0.366
0.298,0.969,-0.137,-14.954,12.390,-2.869
0.307,0.944,-0.164,-14.587,13.550,-4.578
0.305,0.934,-0.181,-11.536,14.954,-5.249
0.290,0.921,-0.178,-7.019,15.503,-5.127
0.273,0.925,-0.177,-3.845,15.991,-4.089
0.268,0.950,-0.174,-2.075,15.625,-3.113
0.272,0.980,-0.177,-1.587,15.503,-2.197
0.277,1.001,-0.178,-1.770,15.381,-2.441
0.270,1.005,-0.183,-2.625,15.198,-3.845
0.271,1.002,-0.197,-4.578,14.893,-5.127
0.274,0.995,-0.208,-5.615,13.916,-6.714
0.271,0.986,-0.205,-4.456,13.367,-8.728
0.272,0.981,-0.191,-2.258,13.000,-10.864
0.273,0.956,-0.179,-0.671,13.611,-13.000
0.299,0.938,-0.184,-0.854,14.099,-14.893
0.314,0.894,-0.210,-2.197,14.832,-15.503
0.330,0.868,-0.242,-2.625,15.747,-13.794
0.336,0.870,-0.260,-1.770,15.442,-10.559
0.344,0.904,-0.256,1.221,14.038,-7.507
0.339,0.928,-0.247,1.770,11.780,-6.226
0.342,0.947,-0.242,0.916,9.277,-6.470
0.338,0.943,-0.230,-1.648,6.958,-8.118
0.345,0.930,-0.222,-3.296,5.188,-10.864
0.361,0.912,-0.224,-3.235,5.249,-13.245
0.377,0.888,-0.226,-2.319,6.470,-13.977
0.384,0.845,-0.237,-1.038,8.057,-13.489
0.393,0.819,-0.252,-0.427,9.521,-11.169
0.396,0.821,-0.265,-0.183,9.827,-7.202
0.383,0.835,-0.271,-0.183,8.728,-3.906
0.368,0.868,-0.265,0.305,6.531,-1.282

0.456,-0.057,-0.754,-13.489,21.423,24.841
0.541,-0.061,-0.568,-12.085,20.325,28.198
0.503,-0.025,-0.519,-7.568,21.606,31.799
0.473,-0.003,-0.491,-15.137,23.560,33.508
0.467,-0.004,-0.494,-24.658,25.635,32.288
0.480,-0.040,-0.545,-29.114,28.076,28.442
0.498,-0.102,-0.582,-25.818,30.396,25.146
0.510,-0.214,-0.540,-15.015,33.386,24.536
0.518,-0.332,-0.399,0.244,38.574,28.198
0.491,-0.399,-0.219,11.475,47.913,38.818
0.458,-0.393,-0.158,12.085,62.073,55.176
0.424,-0.353,-0.149,8.057,76.172,73.120
0.360,-0.264,-0.102,6.470,87.341,88.440
0.298,-0.147,-0.063,6.836,96.436,98.633
0.228,-0.092,-0.014,4.395,104.126,103.394
0.168,-0.061,0.024,2.869,111.633,104.492
0.122,-0.050,0.081,4.456,117.310,102.722
0.113,-0.033,0.096,2.014,124.084,100.769
0.114,-0.020,0.049,-4.883,133.606,100.830
0.058,-0.001,-0.056,-11.963,144.470,102.722
0.042,-0.041,-0.077,-18.616,155.090,104.797
-0.012,-0.073,-0.111,-24.292,166.077,108.887
-0.068,-0.055,-0.215,-37.292,181.335,117.188
-0.120,0.100,-0.309,-33.203,191.833,123.352
-0.148,0.251,-0.369,-27.649,194.092,125.732
-0.192,0.336,-0.438,-33.508,191.589,125.183
-0.229,0.390,-0.519,-47.424,187.866,121.826
-0.268,0.405,-0.649,-66.467,187.134,116.882
-0.304,0.367,-0.832,-83.923,189.758,110.779
-0.322,0.328,-1.033,-88.989,193.115,105.347
-0.340,0.367,-1.168,-84.229,196.228,103.210
-0.438,0.223,-1.416,-81.177,202.698,102.234
-0.398,0.416,-1.555,-47.302,201.233,107.605
-0.431,0.559,-1.618,-32.166,191.528,117.065
-0.515,0.624,-1.765,-34.485,182.739,118.774
-0.552,0.713,-1.917,-29.053,168.640,113.464
-0.543,0.739,-2.013,-23.621,149.231,103.577
-0.502,0.718,-2.071,-19.287,129.456,91.187
-0.457,0.698,-2.122,-15.442,112.671,80.139
-0.420,0.673,-2.163,-13.855,98.450,72.510
-0.402,0.640,-2.198,-11.719,85.205,67.017
-0.382,0.612,-2.229,-6.714,72.388,63.416
-0.370,0.615,-2.220,2.380,58.777,60.974
-0.363,0.625,-2.177,11.658,44.739,57.312
-0.364,0.622,-2.145,20.447,31.860,52.551
-0.355,0.595,-2.102,28.564,20.508,46.814
-0.344,0.577,-2.014,37.292,10.010,41.077
-0.339,0.551,-1.954,42.297,0.977,36.377
-0.318,0.528,-1.930,42.847,-7.202,34.119
-0.301,0.549,-1.898,43.579,-15.869,32.288
-0.300,0.557,-1.866,45.410,-26.001,29.785
-0.299,0.542,-1.855,46.021,-36.255,26.672
-0.298,0.509,-1.853,46.692,-45.654,22.522
-0.293,0.473,-1.870,49.072,-53.528,18.494
-0.281,0.410,-1.903,54.016,-61.218,14.465
-0.263,0.319,-1.939,61.157,-69.153,12.085
-0.248,0.280,-1.934,72.571,-78.369,12.451
-0.253,0.283,-1.862,86.670,-87.952,14.343
-0.267,0.286,-1.742,95.886,-96.985,15.686
-0.265,0.302,-1.677,97.717,-104.980,15.747
-0.250,0.299,-1.657,94.666,-113.037,13.977
-0.234,0.252,-1.644,92.957,-122.803,11.414
-0.213,0.181,-1.627,95.032,-133.972,9.216
-0.186,0.095,-1.609,101.379,-146.057,9.521
-0.153,-0.007,-1.596,109.924,-158.020,14.526
-0.139,-0.031,-1.506,121.399,-169.983,24.963
-0.144,0.059,-1.335,134.705,-181.458,37.659
-0.105,0.206,-1.216,150.146,-191.833,44.922
-0.224,0.309,-1.074,162.781,-202.942,40.588
-0.216,0.326,-0.953,151.489,-206.726,34.424
-0.134,0.334,-0.962,127.563,-201.233,31.555
-0.090,0.280,-1.003,108.948,-192.688,29.175
-0.101,0.226,-0.997,105.774,-185.425,28.564
-0.114,0.225,-0.952,113.403,-181.030,31.128
-0.113,0.250,-0.894,121.094,-179.687,35.767
-0.109,0.313,-0.828,124.573,-181.091,40.405
-0.094,0.402,-0.713,127.136,-184.631,43.640
-0.090,0.484,-0.606,123.840,-187.622,44.067
-0.086,0.541,-0.527,115.417,-187.744,41.443
-0.070,0.572,-0.490,104.736,-184.265,36.682
-0.046,0.558,-0.496,93.750,-179.016,30.334
-0.009,0.536,-0.504,85.388,-174.805,24.414
0.028,0.502,-0.512,81.299,-172.607,21.912
0.063,0.494,-0.493,79.285,-173.950,23.621
0.073,0.492,-0.475,76.721,-177.429,28.931
0.060,0.510,-0.443,75.012,-181.519,36.682
0.022,0.528,-0.404,75.439,-184.570,43.884
-0.015,0.575,-0.348,77.087,-186.157,48.645
-0.049,0.653,-0.245,80.017,-186.646,50.598
-0.061,0.710,-0.166,80.078,-185.486,48.157
-0.048,0.704,-0.158,73.975,-183.167,43.457
-0.036,0.675,-0.168,67.017,-180.969,39.734
-0.054,0.664,-0.134,66.833,-178.955,38.696
-0.090,0.680,-0.051,72.388,-176.575,39.734
-0.122,0.733,0.069,78.430,-171.265,40.100
-0.157,0.786,0.170,79.041,-163.025,36.926
-0.172,0.828,0.227,73.181,-154.297,30.579
-0.168,0.859,0.267,64.636,-146.851,22.400
-0.155,0.882,0.330,56.152,-140.503,13.062
-0.133,0.895,0.412,48.645,-132.690,3.601
-0.105,0.893,0.478,40.222,-121.765,-5.493
-0.062,0.863,0.499,29.358,-107.666,-14.771
-0.010,0.802,0.479,19.226,-92.041,-22.827
0.041,0.740,0.446,12.390,-76.538,-27.222
0.084,0.691,0.414,10.010,-61.462,-27.771
0.112,0.638,0.366,9.338,-47.546,-25.208
0.155,0.616,0.315,8.667,-36.316,-20.508
0.189,0.633,0.267,9.216,-28.015,-14.648
0.199,0.683,0.237,9.033,-23.071,-9.094
0.200,0.740,0.246,8.789,-20.325,-6.470
0.207,0.792,0.263,5.493,-18.311,-8.179
0.240,0.817,0.253,-1.099,-16.724,-12.390
0.275,0.808,0.223,-8.789,-14.771,-17.456
0.304,0.739,0.174,-13.489,-12.085,-22.339
0.345,0.667,0.119,-14.526,-8.545,-23.682
0.393,0.642,0.081,-11.475,-5.310,-20.508
0.425,0.646,0.060,-5.920,-2.808,-14.099
0.435,0.675,0.055,-0.732,-0.916,-6.836
0.429,0.726,0.056,2.319,0.488,-0.549
0.422,0.786,0.062,3.235,1.404,3.845
0.413,0.834,0.070,1.831,2.197,5.249
0.412,0.874,0.076,-0.793,3.052,4.395
0.417,0.903,0.076,-4.028,3.845,2.136
0.421,0.903,0.064,-7.080,5.859,-0.854
0.419,0.877,0.032,-9.521,9.155,-3.967
0.426,0.826,-0.023,-10.315,12.939,-5.676
0.462,0.758,-0.087,-9.521,15.503,-4.761
0.467,0.717,-0.125,-5.432,15.503,0.061
0.463,0.778,-0.123,1.892,13.550,9.033
0.425,0.864,-0.083,7.385,10.254,16.785
0.387,0.936,-0.040,7.385,7.751,18.982
0.375,0.979,-0.028,4.456,7.141,15.930
0.381,0.984,-0.039,0.183,7.751,10.254
0.390,0.963,-0.056,-3.967,8.301,4.089
0.397,0.938,-0.070,-4.883,9.155,-0.488
0.409,0.911,-0.082,-4.211,10.620,-3.662
0.421,0.868,-0.097,-2.625,11.902,-5.310
0.438,0.834,-0.115,-0.366,13.123,-5.188
0.448,0.819,-0.129,1.099,12.939,-3.052
0.451,0.836,-0.124,2.258,11.414,1.221
0.443,0.878,-0.103,1.282,8.728,4.822
0.431,0.916,-0.086,-1.526,6.958,6.104
0.431,0.937,-0.089,-5.432,6.348,4.883
0.431,0.938,-0.100,-8.179,6.958,1.892
0.430,0.928,-0.109,-8.118,8.789,-1.343
0.430,0.924,-0.108,-5.737,10.986,-3.845
0.429,0.912,-0.110,-3.357,13.428,-5.676
0.434,0.887,-0.122,-1.831,15.259,-7.080
0.447,0.862,-0.144,-1.038,15.808,-7.751

0.604,0.269,-0.575,15.198,22.949,28.381
0.593,0.269,-0.530,5.920,18.005,26.733
0.594,0.303,-0.570,-1.892,12.817,21.729
0.580,0.217,-0.558,-7.629,8.728,15.991
0.595,0.159,-0.521,-7.446,7.141,13.550
0.584,0.150,-0.485,-2.808,9.827,15.381
0.557,0.153,-0.437,1.770,15.137,18.066
0.518,0.119,-0.391,4.944,21.545,20.142
0.523,0.124,-0.365,7.019,28.015,22.217
0.528,0.129,-0.353,8.789,33.997,24.963
0.517,0.086,-0.337,9.583,39.368,27.100
0.508,0.042,-0.299,11.108,44.067,30.579
0.480,0.024,-0.269,12.146,48.462,36.377
0.454,0.009,-0.279,10.620,52.734,43.884
0.429,0.008,-0.276,8.545,55.847,51.697
0.418,0.055,-0.243,8.057,58.289,59.204
0.391,0.083,-0.261,4.150,62.439,65.918
0.381,0.136,-0.279,2.563,67.017,70.435
0.349,0.169,-0.274,2.563,70.862,71.167
0.356,0.227,-0.268,2.197,74.951,69.946
0.357,0.250,-0.261,-1.526,79.529,67.322
0.367,0.236,-0.299,-8.423,86.670,63.416
0.350,0.204,-0.365,-13.123,95.215,61.096
0.312,0.173,-0.413,-14.648,103.027,61.707
0.234,0.177,-0.533,-10.071,112.000,64.453
0.237,0.202,-0.489,-13.367,115.417,68.726
0.206,0.244,-0.530,-14.343,115.356,73.608
0.197,0.325,-0.582,-16.663,114.685,78.003
0.180,0.390,-0.648,-23.132,112.427,81.482
0.161,0.418,-0.709,-30.334,109.619,82.642
0.151,0.441,-0.761,-34.729,107.239,81.543
0.142,0.460,-0.804,-35.217,106.201,79.834
0.145,0.495,-0.820,-35.339,107.056,78.125
0.127,0.470,-0.913,-38.818,111.389,76.477
0.121,0.467,-1.028,-31.982,114.868,76.843
0.116,0.517,-1.069,-19.897,112.854,81.177
0.066,0.542,-1.084,-15.076,111.084,85.144
0.012,0.555,-1.115,-10.498,111.877,86.914
-0.016,0.614,-1.135,-1.892,111.816,87.891
-0.037,0.689,-1.132,5.493,109.009,88.806
-0.062,0.753,-1.127,8.423,103.577,88.379
-0.095,0.790,-1.135,5.859,96.863,85.632
-0.113,0.794,-1.150,0.000,89.050,80.200
-0.115,0.774,-1.178,-6.226,80.811,73.608
-0.106,0.752,-1.193,-9.460,72.998,67.810
-0.104,0.734,-1.202,-10.254,66.711,64.026
-0.103,0.716,-1.211,-9.155,62.195,62.134
-0.100,0.713,-1.209,-6.836,58.411,61.462
-0.106,0.731,-1.204,-4.089,54.871,61.462
-0.118,0.758,-1.201,-1.770,51.758,61.707
-0.125,0.787,-1.213,-1.282,48.889,60.974
-0.130,0.812,-1.230,-2.197,45.837,58.044
-0.139,0.817,-1.259,-3.784,41.992,53.467
-0.146,0.804,-1.289,-4.822,37.842,47.729
-0.144,0.783,-1.309,-3.418,33.142,41.748
-0.141,0.758,-1.336,-1.404,29.053,36.682
-0.127,0.755,-1.372,-0.061,26.062,33.447
-0.109,0.766,-1.419,1.587,23.132,31.799
-0.099,0.778,-1.470,3.357,19.409,30.701
-0.096,0.791,-1.521,5.310,14.465,29.236
-0.108,0.797,-1.568,8.362,8.911,26.672
-0.121,0.796,-1.605,12.085,2.258,22.583
-0.128,0.799,-1.638,15.991,-4.089,17.883
-0.131,0.776,-1.677,19.958,-10.498,12.512
-0.127,0.727,-1.711,24.048,-18.433,6.531
-0.118,0.690,-1.715,29.236,-27.832,1.831
-0.115,0.668,-1.684,34.973,-38.452,-0.854
-0.116,0.667,-1.634,39.063,-49.072,-2.136
-0.115,0.669,-1.587,40.710,-59.265,-3.052
-0.110,0.664,-1.539,42.114,-68.970,-4.639
-0.107,0.659,-1.480,44.006,-78.003,-7.141
-0.104,0.639,-1.411,46.143,-85.632,-10.925
-0.099,0.603,-1.347,47.668,-91.248,-14.832
-0.084,0.568,-1.287,49.255,-95.032,-18.005
-0.062,0.538,-1.234,51.941,-97.900,-19.470
-0.052,0.506,-1.191,53.894,-100.525,-19.653
-0.040,0.489,-1.142,54.932,-103.027,-18.433
-0.034,0.486,-1.080,55.420,-105.835,-16.541
-0.028,0.485,-1.035,54.810,-108.398,-14.465
-0.017,0.498,-1.006,53.223,-111.023,-11.719
-0.010,0.508,-0.983,51.575,-113.892,-9.155
-0.002,0.516,-0.950,51.392,-116.394,-7.751
0.001,0.528,-0.902,53.833,-118.591,-7.568
0.009,0.543,-0.840,56.152,-120.911,-7.385
0.022,0.548,-0.787,55.481,-122.131,-7.507
0.037,0.546,-0.755,52.124,-122.314,-7.202
0.046,0.530,-0.750,48.645,-121.948,-6.104
0.057,0.525,-0.744,45.715,-120.972,-4.028
0.068,0.551,-0.711,45.959,-120.789,-1.465
0.075,0.591,-0.682,46.265,-120.178,0.916
0.088,0.619,-0.674,44.739,-118.713,1.892
0.103,0.647,-0.666,44.128,-116.638,2.014
0.115,0.672,-0.651,45.410,-114.624,0.732
0.130,0.684,-0.636,47.058,-112.915,-1.465
0.150,0.663,-0.639,47.729,-111.145,-3.784
0.179,0.629,-0.654,47.607,-110.168,-4.944
0.203,0.609,-0.656,47.913,-110.413,-4.272
0.218,0.613,-0.635,49.194,-111.694,-1.343
0.224,0.637,-0.608,50.232,-114.014,2.014
0.225,0.663,-0.587,49.805,-116.089,5.005
0.215,0.684,-0.575,48.462,-117.371,7.019
0.202,0.693,-0.567,48.279,-117.920,7.324
0.197,0.695,-0.547,50.354,-117.798,5.737
0.199,0.705,-0.505,54.321,-118.408,3.723
0.203,0.704,-0.474,56.335,-118.958,1.526
0.211,0.682,-0.454,56.030,-118.835,-0.366
0.220,0.654,-0.437,55.359,-119.019,-1.648
0.230,0.627,-0.399,56.702,-118.958,-1.587
0.235,0.623,-0.348,58.472,-119.202,0.183
0.227,0.624,-0.299,58.777,-118.835,2.991
0.219,0.632,-0.255,56.763,-118.042,5.615
0.212,0.648,-0.232,53.467,-117.310,7.141
0.213,0.671,-0.194,49.683,-116.943,7.690
0.216,0.705,-0.149,46.021,-117.432,7.080
0.215,0.723,-0.116,42.236,-117.004,5.188
0.218,0.721,-0.076,38.574,-115.967,2.014
0.223,0.704,-0.038,35.461,-114.075,-1.709
0.234,0.683,0.004,33.936,-111.084,-4.395
0.254,0.669,0.048,33.325,-106.628,-5.981
0.274,0.652,0.106,31.616,-100.525,-6.897
0.291,0.646,0.157,27.710,-93.384,-6.775
0.304,0.642,0.169,20.813,-85.266,-5.981
0.307,0.628,0.151,14.160,-75.928,-4.456
0.306,0.615,0.122,11.597,-65.674,-2.563
0.311,0.615,0.108,14.465,-56.030,-0.916
0.319,0.638,0.124,19.775,-47.729,0.732
0.322,0.674,0.147,23.315,-40.466,2.075
0.321,0.694,0.147,22.705,-34.363,2.075
0.327,0.700,0.139,19.836,-29.541,1.404
0.342,0.705,0.137,16.541,-26.733,-0.244
0.361,0.710,0.135,12.634,-23.987,-1.343
0.375,0.714,0.126,8.301,-21.851,-2.197
0.393,0.725,0.129,4.822,-20.020,-2.808
0.411,0.730,0.126,1.587,-18.066,-3.235
0.429,0.723,0.106,-1.953,-15.137,-3.479
0.446,0.715,0.069,-4.700,-11.353,-2.808
0.461,0.709,0.038,-5.310,-7.996,-1.282
0.471,0.719,0.031,-2.991,-5.249,0.854
0.480,0.755,0.030,-0.854,-2.747,3.418
0.485,0.788,0.006,-0.916,0.305,4.944
0.485,0.791,-0.024,-2.258,2.930,4.822
0.478,0.786,-0.052,-2.808,5.188,4.578
0.476,0.790,-0.059,-1.404,6.042,4.150
0.479,0.798,-0.051,-0.427,6.531,3.845
0.484,0.812,-0.053,-1.465,7.202,3.845
0.489,0.828,-0.065,-3.845,7.080,4.272
0.489,0.843,-0.083,-5.798,7.202,4.395
0.488,0.846,-0.111,-6.531,8.057,3.967
0.497,0.846,-0.138,-5.676,9.094,2.747

0.310,-0.129,-1.017,-0.061,-6.531,20.264
0.359,-0.127,-0.889,-2.136,-11.719,22.644
0.331,-0.094,-0.871,-3.662,-15.015,20.752
0.318,-0.126,-0.856,-9.521,-15.747,16.418
0.328,-0.146,-0.847,-12.085,-15.686,13.062
0.333,-0.155,-0.808,-8.911,-14.893,10.010
0.331,-0.181,-0.747,-2.625,-10.681,7.629
0.337,-0.200,-0.743,5.371,-2.258,6.409
0.325,-0.203,-0.738,14.343,7.874,6.042
0.301,-0.187,-0.703,23.315,15.808,6.042
0.276,-0.181,-0.662,26.550,20.203,5.005
0.248,-0.172,-0.659,22.156,21.851,3.601
0.224,-0.163,-0.661,14.648,21.362,2.136
0.194,-0.169,-0.627,10.620,20.630,-0.061
0.219,-0.212,-0.495,10.010,21.729,-3.174
0.117,-0.199,-0.512,6.531,25.757,-5.676
0.109,-0.222,-0.463,7.385,35.278,-8.057
0.094,-0.211,-0.429,7.385,43.457,-10.132
0.072,-0.238,-0.417,5.188,51.880,-12.268
0.058,-0.274,-0.393,-1.648,58.838,-11.414
0.033,-0.257,-0.344,-7.874,64.880,-8.118
0.019,-0.228,-0.268,-12.451,71.716,-4.822
-0.008,-0.138,-0.219,-22.217,80.933,-1.221
-0.041,-0.130,-0.321,-40.833,93.506,0.122
-0.030,-0.117,-0.454,-50.903,101.624,-0.610
-0.021,-0.161,-0.533,-54.016,101.929,-2.441
-0.005,-0.260,-0.604,-54.749,101.868,-4.333
0.017,-0.338,-0.663,-50.232,105.103,-2.808
0.010,-0.358,-0.725,-44.312,109.985,3.052
-0.007,-0.356,-0.780,-40.100,113.586,11.963
-0.039,-0.337,-0.827,-38.147,114.746,21.667
-0.068,-0.290,-0.874,-38.147,113.037,30.762
-0.099,-0.230,-0.908,-40.405,109.131,37.659
-0.125,-0.179,-0.926,-45.166,103.516,41.931
-0.152,-0.146,-0.960,-53.101,97.229,43.152
-0.159,-0.153,-0.993,-59.937,91.309,41.565
-0.163,-0.177,-1.033,-60.913,87.219,38.879
-0.173,-0.193,-1.105,-57.434,86.060,37.354
-0.178,-0.210,-1.168,-51.270,87.769,37.781
-0.190,-0.212,-1.230,-42.786,90.332,39.551
-0.197,-0.204,-1.301,-35.461,91.553,41.138
-0.209,-0.199,-1.356,-31.372,90.088,41.870
-0.225,-0.189,-1.386,-29.175,85.083,41.260
-0.232,-0.166,-1.396,-27.039,77.393,39.856
-0.231,-0.156,-1.416,-25.391,68.604,37.537
-0.221,-0.166,-1.437,-24.048,59.692,34.912
-0.194,-0.178,-1.480,-22.644,51.880,32.593
-0.154,-0.190,-1.527,-20.020,45.044,30.701
-0.124,-0.234,-1.573,-15.015,40.161,29.724
-0.101,-0.249,-1.643,-9.094,37.354,30.579
-0.075,-0.341,-1.705,-6.104,34.241,34.363
-0.062,-0.354,-1.781,-2.747,29.480,39.429
-0.051,-0.399,-1.794,1.038,22.705,42.053
-0.050,-0.413,-1.810,4.944,14.587,42.542
-0.036,-0.413,-1.821,6.714,6.287,42.175
-0.015,-0.435,-1.817,7.324,-1.709,40.466
0.000,-0.479,-1.803,11.292,-8.606,38.818
0.011,-0.512,-1.781,18.005,-13.855,38.757
0.020,-0.516,-1.749,25.818,-17.639,41.443
0.010,-0.511,-1.713,31.982,-20.325,46.021
-0.016,-0.499,-1.682,34.485,-22.949,51.880
-0.041,-0.466,-1.658,35.583,-26.855,57.739
-0.064,-0.443,-1.628,37.170,-32.288,61.768
-0.092,-0.434,-1.582,39.246,-38.818,63.232
-0.102,-0.404,-1.547,39.978,-45.532,62.744
-0.096,-0.387,-1.514,37.781,-52.246,60.242
-0.091,-0.421,-1.488,33.813,-59.204,55.908
-0.076,-0.469,-1.455,31.616,-66.528,52.795
-0.044,-0.506,-1.441,33.142,-73.303,52.185
0.003,-0.540,-1.416,36.743,-78.674,55.054
0.020,-0.531,-1.374,40.222,-81.726,61.279
0.011,-0.476,-1.334,41.992,-83.069,69.641
0.002,-0.426,-1.309,39.429,-84.229,76.111
0.002,-0.393,-1.322,36.743,-86.609,78.491
0.017,-0.401,-1.320,35.583,-90.942,76.355
0.042,-0.441,-1.307,37.354,-95.581,71.655
0.075,-0.484,-1.266,42.786,-98.633,67.932
0.099,-0.501,-1.206,47.668,-99.182,67.871
0.113,-0.477,-1.181,50.964,-97.046,72.449
0.133,-0.479,-1.169,49.011,-95.154,79.834
0.118,-0.429,-1.140,48.218,-94.238,89.050
0.077,-0.349,-1.107,49.866,-94.971,97.839
0.042,-0.279,-1.064,50.598,-97.351,104.614
0.016,-0.218,-1.000,51.086,-100.220,108.154
0.003,-0.149,-0.969,50.110,-102.112,108.643
0.009,-0.105,-0.951,46.875,-102.844,106.689
0.025,-0.087,-0.931,43.457,-102.844,103.455
0.045,-0.073,-0.899,41.199,-102.112,100.708
0.060,-0.035,-0.846,40.405,-99.731,99.365
0.067,0.026,-0.823,38.696,-95.947,98.694
0.080,0.069,-0.837,35.095,-91.980,97.839
0.092,0.092,-0.861,30.945,-89.905,96.680
0.107,0.107,-0.875,28.931,-89.417,95.154
0.130,0.119,-0.878,28.137,-90.515,93.018
0.149,0.124,-0.865,26.672,-92.224,90.210
0.165,0.130,-0.859,23.193,-93.506,87.341
0.190,0.154,-0.871,19.531,-94.788,84.473
0.215,0.156,-0.875,15.991,-96.497,80.994
0.229,0.147,-0.855,14.648,-98.206,77.698
0.240,0.153,-0.823,15.808,-98.938,75.500
0.250,0.154,-0.807,17.761,-97.534,74.280
0.267,0.164,-0.774,18.799,-94.727,73.853
0.271,0.204,-0.755,18.311,-91.064,73.425
0.272,0.234,-0.745,16.479,-87.402,71.594
0.271,0.242,-0.703,15.686,-85.022,68.054
0.277,0.253,-0.693,14.771,-83.374,63.660
0.298,0.240,-0.662,13.611,-82.153,59.082
0.309,0.241,-0.638,12.573,-80.444,55.603
0.326,0.254,-0.652,10.681,-77.881,53.467
0.344,0.243,-0.649,8.850,-75.562,52.551
0.347,0.223,-0.641,9.705,-72.449,52.490
0.349,0.221,-0.631,13.062,-68.481,53.711
0.332,0.269,-0.607,17.822,-63.660,55.908
0.315,0.315,-0.577,21.240,-58.655,57.800
0.307,0.344,-0.549,21.301,-54.077,58.350
0.299,0.384,-0.539,19.531,-50.476,57.617
0.291,0.417,-0.541,17.334,-48.523,54.993
0.287,0.434,-0.521,15.015,-48.279,50.598
0.283,0.447,-0.482,13.428,-48.584,45.654
0.281,0.467,-0.454,11.475,-48.645,40.588
0.290,0.474,-0.455,7.446,-48.279,35.645
0.311,0.455,-0.449,4.089,-47.668,31.616
0.320,0.435,-0.414,3.296,-46.997,29.053
0.322,0.444,-0.369,3.479,-44.861,28.076
0.325,0.475,-0.334,1.282,-41.260,28.381
0.329,0.508,-0.313,-2.686,-37.048,28.748
0.336,0.547,-0.332,-8.179,-32.776,27.954
0.357,0.565,-0.383,-14.343,-29.602,25.635
0.379,0.544,-0.428,-18.799,-27.527,21.179
0.396,0.498,-0.462,-18.921,-26.062,15.015
0.420,0.456,-0.490,-15.198,-23.254,9.216
0.439,0.430,-0.512,-9.521,-18.677,5.371
0.454,0.405,-0.525,-4.517,-13.306,3.357
0.474,0.385,-0.544,-0.732,-8.484,2.686
0.497,0.388,-0.565,2.441,-5.127,3.113
0.501,0.392,-0.563,4.761,-3.174,3.906
0.501,0.421,-0.560,6.226,-2.014,4.700
0.501,0.450,-0.567,5.310,-1.343,4.272
0.510,0.464,-0.604,2.014,-1.282,1.892
0.529,0.444,-0.628,-0.854,-2.075,-2.197
0.555,0.428,-0.637,-0.427,-3.174,-6.592
0.585,0.416,-0.622,1.221,-3.784,-10.742
0.599,0.405,-0.608,2.014,-3.418,-13.428
0.618,0.408,-0.597,2.380,-1.831,-14.160
0.628,0.396,-0.587,2.808,-0.244,-13.794
0.638,0.393,-0.566,3.174,1.587,-12.512
0.641,0.409,-0.566,2.869,3.723,-11.230
0.647,0.423,-0.590,0.061,5.310,-10.559
0.645,0.429,-0.605,-2.258,5.920,-10.559

0.240,0.907,-0.691,-20.020,2.319,-0.183
0.315,0.727,-0.601,-14.709,1.038,-6.958
0.361,0.690,-0.594,-4.944,2.991,-7.812
0.356,0.586,-0.583,-1.099,5.371,-4.761
0.376,0.531,-0.561,-0.977,5.798,1.465
0.378,0.480,-0.577,-3.845,4.517,8.972
0.373,0.432,-0.625,-10.437,0.061,17.212
0.353,0.448,-0.606,-15.015,-7.202,26.306
0.340,0.454,-0.584,-16.479,-13.306,32.471
0.320,0.453,-0.526,-16.541,-16.785,34.912
0.315,0.406,-0.473,-18.127,-17.761,34.546
0.335,0.307,-0.425,-22.766,-17.761,34.058
0.352,0.217,-0.406,-29.907,-16.663,37.048
0.347,0.168,-0.371,-36.377,-13.794,45.227
0.317,0.173,-0.374,-41.199,-8.789,55.298
0.284,0.190,-0.387,-42.847,-3.296,63.782
0.230,0.195,-0.358,-39.124,3.174,69.946
0.161,0.189,-0.299,-35.522,10.437,74.829
0.106,0.186,-0.254,-36.316,17.944,77.576
0.050,0.172,-0.314,-39.429,25.879,78.369
0.040,0.127,-0.255,-51.880,31.372,79.224
0.050,0.141,-0.290,-65.918,31.067,81.116
0.059,0.148,-0.334,-76.050,30.273,82.703
0.062,0.135,-0.369,-85.083,29.175,83.252
0.050,0.106,-0.419,-88.867,29.907,84.412
0.055,0.127,-0.418,-85.449,34.058,87.158
-0.015,0.046,-0.467,-84.839,44.800,91.309
-0.051,0.065,-0.545,-70.740,58.655,97.778
-0.064,0.191,-0.507,-51.392,65.186,109.009
-0.114,0.262,-0.508,-56.580,71.838,118.347
-0.168,0.342,-0.603,-65.857,79.285,124.695
-0.226,0.445,-0.716,-68.970,82.703,129.211
-0.271,0.542,-0.825,-72.021,80.139,131.653
-0.300,0.594,-0.928,-74.890,74.890,132.874
-0.323,0.613,-1.005,-71.960,69.702,133.789
-0.361,0.643,-1.043,-64.636,66.650,135.071
-0.402,0.695,-1.054,-55.664,66.406,135.803
-0.432,0.765,-1.076,-46.448,67.993,135.193
-0.484,0.846,-1.133,-38.513,70.190,134.399
-0.542,0.942,-1.213,-34.973,71.777,134.460
-0.604,1.041,-1.298,-35.156,69.885,134.583
-0.643,1.120,-1.378,-35.339,63.477,130.615
-0.656,1.175,-1.425,-31.433,53.528,121.948
-0.639,1.222,-1.443,-23.560,41.931,109.131
-0.611,1.255,-1.435,-14.160,29.663,92.773
-0.571,1.254,-1.415,-5.615,18.311,75.989
-0.571,1.209,-1.381,0.610,8.972,60.486
-0.516,1.179,-1.357,0.793,3.113,48.889
-0.445,1.143,-1.377,-2.563,1.587,40.710
-0.394,1.105,-1.411,-4.395,1.160,33.630
-0.358,1.074,-1.438,-2.686,0.305,27.710
-0.328,1.035,-1.451,1.221,-1.831,22.766
-0.285,0.959,-1.476,5.920,-5.432,18.555
-0.253,0.898,-1.500,11.169,-10.498,16.174
-0.249,0.889,-1.482,15.625,-17.822,15.869
-0.241,0.878,-1.506,14.465,-26.367,16.541
-0.216,0.843,-1.556,10.315,-35.889,17.639
-0.211,0.800,-1.588,9.460,-46.509,18.860
-0.209,0.779,-1.578,13.733,-57.434,20.264
-0.217,0.750,-1.554,24.231,-69.275,20.752
-0.239,0.706,-1.476,35.583,-82.642,21.057
-0.211,0.649,-1.422,39.856,-93.140,23.193
-0.182,0.583,-1.374,39.368,-101.135,26.733
-0.175,0.540,-1.301,37.903,-108.215,31.799
-0.163,0.507,-1.231,33.508,-115.051,37.170
-0.141,0.467,-1.215,27.588,-122.314,42.297
-0.128,0.447,-1.224,24.109,-133.179,48.218
-0.127,0.451,-1.209,20.935,-146.912,55.969
-0.128,0.469,-1.190,18.616,-159.851,64.697
-0.131,0.497,-1.165,18.311,-170.410,72.144
-0.132,0.517,-1.132,18.982,-177.551,76.904
-0.112,0.482,-1.111,18.372,-181.030,78.674
-0.070,0.422,-1.113,15.930,-181.885,79.163
-0.055,0.399,-1.088,15.076,-180.847,79.102
-0.075,0.435,-1.052,17.334,-178.284,77.271
-0.091,0.489,-1.032,19.348,-173.950,72.266
-0.080,0.527,-1.017,22.705,-167.908,63.904
-0.065,0.533,-0.996,29.358,-159.302,53.345
-0.048,0.512,-0.966,36.804,-148.743,42.664
-0.028,0.474,-0.941,42.358,-136.841,33.875
-0.021,0.461,-0.922,46.570,-125.488,29.297
-0.032,0.480,-0.885,49.805,-115.784,28.137
-0.045,0.505,-0.854,53.223,-107.727,29.297
-0.054,0.560,-0.820,55.908,-101.196,31.250
-0.069,0.621,-0.818,54.932,-96.252,32.104
-0.078,0.652,-0.836,52.063,-93.689,30.762
-0.086,0.664,-0.856,51.208,-93.811,27.771
-0.083,0.659,-0.861,54.443,-96.313,23.987
-0.073,0.635,-0.841,59.753,-100.159,20.325
-0.078,0.616,-0.782,64.087,-104.004,17.456
-0.073,0.595,-0.728,65.247,-107.422,14.282
-0.048,0.574,-0.698,64.880,-109.802,12.390
-0.023,0.564,-0.661,65.735,-111.206,11.597
-0.010,0.570,-0.637,65.002,-111.572,13.367
-0.015,0.575,-0.614,62.134,-111.023,16.479
-0.039,0.572,-0.573,60.120,-109.863,20.203
-0.057,0.600,-0.507,60.120,-108.154,22.949
-0.084,0.626,-0.431,60.913,-105.164,23.254
-0.109,0.645,-0.342,59.631,-100.525,20.508
-0.119,0.662,-0.279,55.908,-93.750,16.113
-0.117,0.678,-0.259,48.157,-86.365,10.498
-0.077,0.674,-0.263,41.443,-78.613,3.967
-0.057,0.634,-0.264,38.452,-71.960,-1.587
-0.049,0.620,-0.241,36.743,-66.528,-3.357
-0.052,0.628,-0.214,34.790,-61.523,-2.686
-0.066,0.667,-0.188,30.396,-57.190,-1.648
-0.066,0.698,-0.174,22.827,-54.565,-2.502
-0.064,0.719,-0.168,15.076,-53.589,-5.493
-0.059,0.727,-0.153,11.047,-53.711,-10.132
-0.050,0.727,-0.127,8.606,-54.382,-15.991
-0.029,0.703,-0.104,3.967,-54.871,-21.851
-0.005,0.676,-0.083,-2.136,-54.749,-26.733
0.024,0.673,-0.076,-6.348,-54.199,-29.541
0.055,0.665,-0.107,-10.315,-51.819,-30.151
0.097,0.658,-0.159,-14.099,-47.974,-28.687
0.138,0.646,-0.206,-16.846,-43.579,-26.123
0.168,0.639,-0.234,-18.250,-39.001,-23.315
0.190,0.637,-0.251,-17.944,-34.302,-21.179
0.196,0.633,-0.259,-17.395,-29.175,-19.775
0.191,0.656,-0.259,-17.639,-23.865,-19.409
0.195,0.698,-0.280,-19.775,-18.677,-19.958
0.209,0.722,-0.317,-21.973,-14.343,-22.583
0.229,0.723,-0.342,-21.790,-10.803,-26.428
0.257,0.719,-0.362,-20.813,-8.301,-29.785
0.288,0.714,-0.400,-20.020,-6.287,-32.043
0.320,0.690,-0.447,-19.836,-4.700,-33.020
0.351,0.660,-0.478,-18.188,-3.845,-31.860
0.377,0.637,-0.489,-15.442,-3.418,-29.846
0.391,0.628,-0.487,-12.207,-3.052,-27.039
0.394,0.650,-0.479,-9.827,-2.808,-24.170
0.398,0.688,-0.485,-10.010,-2.075,-21.973
0.408,0.711,-0.505,-10.864,-1.221,-20.691
0.418,0.719,-0.519,-10.803,-0.916,-20.203
0.431,0.723,-0.531,-9.094,-0.488,-20.325
0.454,0.701,-0.552,-7.507,0.122,-21.179
0.479,0.689,-0.570,-5.737,0.671,-21.423
0.490,0.677,-0.569,-3.845,1.221,-20.691
0.493,0.675,-0.572,-3.235,1.343,-18.738
0.486,0.695,-0.568,-3.845,0.671,-16.174
0.472,0.723,-0.557,-4.272,-0.671,-14.038
0.458,0.731,-0.546,-4.944,-2.747,-13.184
0.451,0.721,-0.540,-5.249,-4.883,-12.817
0.447,0.722,-0.538,-4.333,-6.226,-12.207
0.440,0.742,-0.537,-3.601,-7.080,-11.353
0.434,0.763,-0.543,-4.456,-7.385,-11.597
0.435,0.759,-0.558,-6.592,-7.263,-13.000
0.439,0.745,-0.566,-8.057,-7.324,-14.893
0.444,0.735,-0.570,-9.094,-7.812,-15.991
0.447,0.711,-0.593,-11.780,-8.728,-15.869

0.033,-0.365,0.142,-15.381,80.750,-117.432
0.128,-0.495,-0.001,-25.879,73.975,-131.897
0.295,-0.558,-0.109,-14.587,59.509,-145.752
0.503,-0.618,-0.081,12.756,44.250,-151.062
0.655,-0.680,-0.008,36.682,39.307,-137.878
0.562,-0.733,0.017,34.424,46.387,-110.107
0.443,-0.671,-0.026,27.588,53.406,-88.928
0.353,-0.658,-0.063,21.301,50.964,-84.412
0.394,-0.739,-0.034,13.977,43.274,-89.050
0.495,-0.847,-0.010,7.019,36.011,-95.032
0.552,-0.985,-0.069,3.174,33.264,-96.619
0.582,-1.099,-0.123,7.629,33.447,-92.468
0.529,-1.099,-0.061,22.278,36.194,-83.801
0.497,-1.026,-0.009,38.574,44.922,-74.890
0.498,-0.970,-0.066,50.964,57.922,-71.716
0.481,-0.940,-0.129,63.782,67.078,-73.303
0.439,-0.948,-0.163,79.346,69.458,-75.500
0.331,-0.967,-0.149,100.098,66.528,-76.477
0.210,-0.908,-0.109,120.483,60.791,-77.209
0.078,-0.870,-0.087,132.202,56.335,-84.351
0.077,-0.746,0.017,140.686,59.875,-99.243
0.072,-0.752,-0.014,125.122,66.589,-107.178
0.194,-0.747,-0.154,97.473,80.322,-102.600
0.198,-0.833,-0.265,71.289,93.933,-95.215
0.238,-0.868,-0.382,60.425,103.394,-89.905
0.241,-0.894,-0.452,55.542,105.713,-86.426
0.251,-0.888,-0.451,52.734,103.088,-84.961
0.276,-1.015,-0.400,47.485,99.548,-85.388
0.290,-1.029,-0.342,40.283,98.999,-83.496
0.335,-1.171,-0.397,21.667,104.065,-82.886
0.393,-1.302,-0.485,6.897,107.666,-84.473
0.450,-1.451,-0.588,1.465,106.140,-86.975
0.544,-1.605,-0.669,1.465,99.854,-88.135
0.613,-1.753,-0.704,6.287,88.684,-84.839
0.667,-1.863,-0.701,15.625,76.660,-75.012
0.729,-1.967,-0.720,24.963,66.711,-58.350
0.753,-2.086,-0.750,34.302,58.411,-36.133
0.780,-2.153,-0.716,46.936,49.805,-10.803
0.766,-2.181,-0.635,60.364,43.152,14.771
0.729,-2.140,-0.568,72.632,41.382,39.978
0.681,-2.083,-0.527,78.857,43.518,61.279
0.628,-2.020,-0.504,78.369,47.668,77.087
0.594,-1.935,-0.515,75.073,52.673,87.463
0.563,-1.854,-0.559,72.205,56.763,93.323
0.543,-1.768,-0.616,71.228,58.533,97.717
0.507,-1.668,-0.669,73.364,56.885,101.624
0.501,-1.580,-0.733,75.623,52.490,105.591
0.495,-1.517,-0.768,80.566,45.288,109.985
0.483,-1.436,-0.758,89.111,37.109,115.479
0.465,-1.348,-0.717,98.755,29.907,121.338
0.442,-1.263,-0.675,107.178,24.902,127.930
0.408,-1.166,-0.627,113.220,21.851,134.644
0.363,-1.078,-0.575,115.662,20.386,140.015
0.340,-0.990,-0.559,112.549,20.508,143.982
0.343,-0.950,-0.600,103.760,20.752,145.630
0.368,-0.954,-0.663,94.543,18.921,144.775
0.390,-0.940,-0.709,91.553,14.404,143.250
0.389,-0.904,-0.717,96.924,9.216,142.395
0.382,-0.857,-0.689,105.103,5.005,142.883
0.369,-0.801,-0.645,111.389,2.747,145.081
0.356,-0.739,-0.622,115.295,2.930,148.132
0.330,-0.664,-0.602,117.310,4.395,151.855
0.297,-0.584,-0.590,118.225,5.371,154.541
0.280,-0.516,-0.586,117.554,5.554,154.968
0.281,-0.492,-0.590,116.272,4.333,152.832
0.312,-0.483,-0.627,114.868,2.258,148.987
0.344,-0.490,-0.673,113.037,-0.793,145.081
0.352,-0.475,-0.682,113.770,-4.761,142.273
0.343,-0.427,-0.655,119.141,-8.789,140.991
0.341,-0.361,-0.616,123.230,-11.658,140.137
0.346,-0.287,-0.578,122.986,-13.184,139.526
0.341,-0.208,-0.528,120.850,-12.756,137.756
0.327,-0.132,-0.534,115.601,-10.864,133.972
0.346,-0.091,-0.574,104.492,-9.644,128.479
0.375,-0.097,-0.617,93.445,-10.742,121.643
0.419,-0.134,-0.676,86.792,-13.916,115.051
0.474,-0.172,-0.703,83.435,-18.982,110.413
0.491,-0.157,-0.688,84.412,-25.452,109.924
0.489,-0.115,-0.664,85.510,-31.494,112.305
0.496,-0.076,-0.642,83.862,-37.292,117.126
0.493,-0.033,-0.614,78.979,-42.786,122.498
0.497,-0.001,-0.621,71.899,-47.302,127.991
0.501,0.013,-0.606,64.331,-51.819,132.263
0.496,0.052,-0.568,58.899,-56.030,135.010
0.482,0.104,-0.536,54.626,-58.960,135.986
0.479,0.153,-0.542,47.119,-60.974,135.925
0.489,0.189,-0.546,38.025,-63.232,134.216
0.489,0.229,-0.539,33.203,-64.758,131.165
0.503,0.219,-0.551,31.677,-65.063,126.526
0.522,0.202,-0.547,33.020,-63.721,122.437
0.508,0.249,-0.524,39.368,-59.570,120.178
0.492,0.312,-0.488,46.265,-52.612,117.981
0.475,0.369,-0.441,49.500,-44.189,113.831
0.452,0.443,-0.403,50.171,-35.217,107.727
0.447,0.508,-0.374,50.598,-26.917,98.938
0.451,0.532,-0.380,49.255,-20.203,88.623
0.471,0.517,-0.402,45.715,-15.625,79.163
0.490,0.490,-0.435,43.640,-13.672,72.876
0.503,0.480,-0.438,43.091,-14.160,71.350
0.506,0.496,-0.416,42.297,-16.357,72.754
0.497,0.542,-0.390,37.659,-19.470,73.853
0.483,0.590,-0.396,27.771,-21.973,72.266
0.469,0.615,-0.411,16.663,-25.513,67.322
0.462,0.628,-0.413,8.118,-29.175,59.937
0.474,0.605,-0.422,2.014,-31.799,51.392
0.491,0.579,-0.426,-2.380,-33.020,44.189
0.524,0.578,-0.432,-3.357,-32.043,39.490
0.557,0.565,-0.463,-2.258,-28.992,36.499
0.559,0.523,-0.490,0.000,-25.330,34.790
0.569,0.523,-0.462,4.639,-22.095,34.180
0.573,0.564,-0.425,9.277,-18.250,33.325
0.571,0.599,-0.427,8.667,-14.221,30.762
0.571,0.614,-0.453,5.066,-10.498,26.245
0.580,0.616,-0.470,4.089,-7.568,19.958
0.585,0.615,-0.473,6.714,-4.456,12.695
0.598,0.585,-0.487,8.972,-0.793,5.493
0.627,0.510,-0.528,10.193,2.808,0.732
0.667,0.446,-0.556,13.123,5.127,0.732
0.677,0.446,-0.554,19.958,5.493,5.066
0.672,0.499,-0.517,26.062,4.211,11.536
0.654,0.556,-0.464,26.550,1.953,15.869
0.640,0.612,-0.456,19.836,-0.488,16.113
0.635,0.645,-0.500,9.460,-3.113,11.841
0.640,0.644,-0.521,2.197,-6.653,4.211
0.654,0.630,-0.491,0.366,-10.010,-4.028
0.676,0.610,-0.469,-0.244,-12.451,-11.230
0.703,0.557,-0.469,-3.174,-13.428,-16.479
0.728,0.494,-0.483,-5.127,-13.000,-17.822
0.750,0.457,-0.472,-2.441,-11.230,-15.076
0.751,0.468,-0.453,2.319,-8.240,-9.521
0.738,0.517,-0.450,5.310,-5.005,-3.906
0.713,0.569,-0.447,6.470,-2.380,-0.549
0.683,0.600,-0.451,6.104,-0.610,-1.221
0.661,0.607,-0.464,4.456,0.366,-5.127
0.652,0.598,-0.469,2.869,0.610,-10.620
0.638,0.582,-0.449,3.113,0.305,-17.334
0.630,0.542,-0.430,2.319,0.183,-23.499
0.634,0.486,-0.438,-0.366,0.244,-28.259
0.649,0.429,-0.467,-3.052,-0.061,-30.518
0.670,0.371,-0.485,-2.563,-1.221,-29.724
0.682,0.344,-0.469,1.831,-2.930,-26.001
0.674,0.364,-0.426,7.202,-4.456,-20.935
0.657,0.398,-0.382,9.521,-5.066,-16.052
0.644,0.432,-0.358,7.874,-4.944,-13.428
0.645,0.457,-0.362,3.418,-4.822,-13.855
0.660,0.459,-0.381,-0.793,-4.333,-16.602
0.678,0.431,-0.401,-2.930,-3.479,-20.142
0.694,0.389,-0.420,-3.540,-1.587,-22.766
0.711,0.358,-0.442,-2.014,0.916,-22.888

0.722,-0.108,-1.174,34.363,-9.888,-7.690
0.682,-0.152,-1.100,43.213,-15.320,8.423
0.600,0.041,-1.002,50.598,-23.926,26.672
0.503,0.117,-0.912,47.119,-29.602,37.781
0.464,0.140,-0.875,39.001,-34.302,39.246
0.445,0.103,-0.845,33.691,-39.307,36.499
0.429,0.081,-0.758,33.081,-43.823,34.729
0.421,0.079,-0.620,35.156,-44.006,35.217
0.403,0.053,-0.502,34.241,-37.903,36.072
0.414,-0.062,-0.476,27.100,-28.992,37.415
0.451,-0.225,-0.461,20.630,-21.667,41.321
0.445,-0.276,-0.397,20.020,-15.442,53.040
0.397,-0.233,-0.346,18.555,-8.484,70.618
0.340,-0.188,-0.320,15.137,-0.183,85.388
0.270,-0.176,-0.307,13.489,9.033,94.055
0.230,-0.172,-0.285,13.062,16.663,99.121
0.198,-0.192,-0.237,14.038,21.729,102.600
0.159,-0.239,-0.135,15.930,26.672,106.567
0.108,-0.261,-0.039,14.099,33.936,113.098
0.126,-0.193,0.171,6.042,44.128,121.216
0.006,-0.182,0.010,-2.197,56.702,128.113
-0.027,-0.188,-0.021,-15.442,64.453,134.583
-0.062,-0.162,-0.019,-21.057,68.420,140.076
-0.097,-0.096,-0.030,-26.855,70.129,144.653
-0.122,0.023,0.036,-27.222,69.763,144.653
-0.156,0.076,0.070,-39.917,73.303,140.991
-0.163,0.162,0.072,-55.542,83.374,135.315
-0.221,0.203,0.013,-68.481,97.473,126.709
-0.289,0.229,-0.099,-83.679,113.098,118.286
-0.314,0.277,-0.252,-98.572,128.906,111.328
-0.333,0.349,-0.336,-116.943,146.606,105.042
-0.372,0.204,-0.697,-143.372,171.448,99.182
-0.325,0.237,-0.992,-119.202,186.523,98.816
-0.313,0.369,-1.051,-71.716,184.509,106.995
-0.386,0.434,-1.025,-50.720,180.359,116.333
-0.444,0.512,-1.075,-44.373,179.443,123.962
-0.478,0.620,-1.176,-45.288,175.415,128.052
-0.498,0.699,-1.247,-50.049,165.039,126.526
-0.509,0.717,-1.251,-52.551,152.344,118.774
-0.512,0.692,-1.256,-55.969,140.991,107.788
-0.501,0.645,-1.296,-61.401,132.812,96.497
-0.497,0.586,-1.368,-62.073,126.526,88.440
-0.497,0.592,-1.461,-56.030,122.070,85.693
-0.502,0.667,-1.546,-45.288,119.080,88.074
-0.525,0.734,-1.603,-33.203,114.929,91.309
-0.557,0.773,-1.616,-21.606,107.361,90.759
-0.570,0.799,-1.600,-13.184,97.229,85.632
-0.567,0.814,-1.580,-9.216,86.060,77.942
-0.549,0.825,-1.569,-8.728,74.280,69.824
-0.528,0.825,-1.590,-11.169,62.744,63.110
-0.502,0.792,-1.637,-14.587,51.025,57.312
-0.494,0.740,-1.678,-15.686,38.940,52.612
-0.495,0.713,-1.705,-13.794,28.503,49.744
-0.487,0.723,-1.741,-10.010,20.020,48.035
-0.467,0.730,-1.775,-5.737,12.024,45.471
-0.451,0.726,-1.775,1.038,3.418,41.016
-0.445,0.722,-1.758,8.972,-4.578,34.607
-0.443,0.698,-1.759,14.221,-11.841,27.710
-0.427,0.651,-1.794,16.113,-19.836,20.813
-0.402,0.587,-1.826,18.066,-29.785,14.465
-0.388,0.531,-1.802,22.644,-42.480,9.644
-0.379,0.486,-1.760,25.696,-55.359,7.446
-0.368,0.456,-1.731,26.245,-67.566,6.958
-0.356,0.425,-1.715,26.062,-78.979,7.263
-0.353,0.389,-1.692,28.870,-89.050,7.263
-0.357,0.364,-1.659,35.400,-97.900,6.958
-0.360,0.338,-1.639,43.335,-105.408,7.202
-0.365,0.310,-1.638,51.758,-112.366,8.179
-0.375,0.280,-1.638,62.195,-119.507,9.949
-0.380,0.275,-1.592,75.012,-127.075,12.512
-0.379,0.298,-1.514,88.135,-134.705,14.465
-0.370,0.326,-1.383,96.069,-142.334,14.404
-0.362,0.354,-1.278,93.994,-148.804,13.000
-0.345,0.371,-1.272,83.801,-153.015,10.803
-0.329,0.332,-1.304,76.477,-156.860,7.751
-0.323,0.281,-1.319,77.209,-161.133,5.310
-0.318,0.270,-1.306,84.778,-165.100,5.676
-0.318,0.283,-1.250,94.604,-168.701,7.996
-0.325,0.317,-1.169,104.126,-171.936,10.437
-0.324,0.347,-1.109,109.253,-175.659,11.108
-0.308,0.381,-1.049,109.497,-179.626,10.376
-0.289,0.414,-0.994,106.934,-184.143,8.362
-0.270,0.421,-0.891,104.858,-189.270,5.005
-0.246,0.430,-0.782,99.915,-193.054,2.380
-0.205,0.432,-0.739,89.233,-193.848,1.770
-0.165,0.415,-0.735,75.623,-192.261,3.845
-0.155,0.407,-0.717,68.176,-189.880,7.874
-0.150,0.422,-0.689,68.176,-187.134,12.085
-0.146,0.444,-0.646,70.923,-183.960,15.503
-0.147,0.463,-0.603,73.242,-179.199,17.944
-0.134,0.470,-0.586,74.158,-173.950,19.165
-0.113,0.467,-0.576,73.975,-168.884,19.409
-0.107,0.475,-0.555,74.829,-165.771,20.142
-0.107,0.493,-0.517,77.454,-165.771,21.179
-0.096,0.524,-0.453,78.796,-167.847,22.217
-0.094,0.563,-0.362,77.942,-169.739,22.644
-0.096,0.590,-0.284,74.585,-170.349,20.508
-0.076,0.584,-0.232,67.871,-169.861,17.090
-0.048,0.568,-0.190,60.303,-168.335,14.465
-0.029,0.562,-0.141,55.237,-165.833,13.916
-0.013,0.570,-0.086,52.795,-161.133,15.381
0.009,0.593,-0.017,51.575,-154.175,17.151
0.031,0.634,0.062,49.561,-144.653,17.578
0.063,0.679,0.111,45.166,-133.057,16.541
0.093,0.695,0.112,37.964,-118.958,14.832
0.113,0.693,0.091,31.616,-104.248,12.451
0.127,0.694,0.066,29.358,-89.844,10.071
0.143,0.709,0.048,29.785,-76.233,7.935
0.152,0.744,0.054,32.166,-63.965,4.700
0.156,0.760,0.067,34.058,-53.772,0.305
0.176,0.753,0.060,31.128,-45.166,-4.456
0.207,0.732,0.021,24.780,-38.269,-8.301
0.238,0.703,-0.026,18.433,-33.447,-10.559
0.263,0.703,-0.059,13.977,-30.640,-11.108
0.275,0.724,-0.063,11.230,-29.419,-10.376
0.279,0.742,-0.044,8.789,-28.137,-10.925
0.289,0.762,-0.036,6.165,-25.635,-12.878
0.302,0.772,-0.055,1.099,-21.545,-15.442
0.312,0.755,-0.103,-3.418,-16.907,-18.433
0.335,0.725,-0.156,-6.287,-12.329,-21.057
0.366,0.709,-0.194,-6.042,-8.911,-21.851
0.390,0.706,-0.211,-3.601,-6.470,-21.729
0.402,0.710,-0.209,-1.282,-4.700,-21.118
0.420,0.720,-0.208,-0.732,-3.052,-20.325
0.449,0.726,-0.226,-2.502,-1.038,-19.714
0.474,0.720,-0.258,-5.432,1.038,-19.409
0.487,0.718,-0.282,-6.653,2.625,-18.799
0.491,0.729,-0.292,-6.104,3.723,-18.311
0.495,0.718,-0.309,-5.371,4.578,-18.799
0.504,0.692,-0.328,-5.005,5.371,-19.165
0.521,0.689,-0.335,-4.150,5.127,-18.677
0.531,0.690,-0.339,-3.479,3.967,-17.517
0.542,0.670,-0.348,-3.357,3.357,-15.747
0.554,0.664,-0.359,-3.052,3.906,-13.367
0.559,0.683,-0.368,-2.014,4.517,-10.315
0.555,0.709,-0.371,-0.610,4.700,-7.263
0.548,0.732,-0.363,0.610,4.944,-5.920
0.542,0.740,-0.355,1.343,5.432,-5.920
0.539,0.744,-0.349,1.526,5.981,-6.409
0.536,0.750,-0.342,2.075,6.470,-6.836
0.534,0.753,-0.336,2.075,6.714,-7.141
0.533,0.749,-0.337,1.526,6.592,-7.446
0.535,0.719,-0.343,1.221,6.287,-7.141
0.541,0.695,-0.345,1.160,5.737,-5.615
0.543,0.705,-0.339,1.038,4.761,-2.380
0.537,0.730,-0.326,0.549,3.967,1.404
0.522,0.757,-0.325,-1.282,4.395,4.089
0.508,0.784,-0.335,-2.808,5.615,5.371
0.501,0.803,-0.345,-3.479,7.202,4.456

0.490,-0.211,-0.458,23.926,65.796,-23.499
0.489,-0.246,-0.375,5.737,66.650,-23.560
0.503,-0.229,-0.411,-4.761,65.125,-28.320
0.466,-0.292,-0.406,-16.052,61.890,-30.640
0.444,-0.360,-0.416,-32.532,55.847,-29.114
0.440,-0.419,-0.480,-43.152,51.331,-25.696
0.448,-0.501,-0.528,-42.236,49.194,-22.095
0.462,-0.571,-0.523,-30.640,49.500,-15.747
0.465,-0.584,-0.406,-15.259,52.551,-5.127
0.423,-0.534,-0.330,-6.470,59.326,8.972
0.367,-0.491,-0.311,-8.057,67.749,22.339
0.308,-0.438,-0.327,-10.925,74.951,31.555
0.275,-0.401,-0.286,-10.559,80.933,36.621
0.251,-0.361,-0.248,-8.484,88.013,39.124
0.247,-0.344,-0.245,-7.568,96.680,40.710
0.255,-0.371,-0.262,-4.822,105.652,42.786
0.268,-0.402,-0.254,2.075,114.441,46.997
0.229,-0.447,-0.229,10.559,124.390,55.176
0.173,-0.413,-0.244,21.423,136.169,67.810
0.112,-0.356,-0.261,30.762,145.874,81.116
0.036,-0.295,-0.234,37.720,153.198,94.421
-0.042,-0.204,-0.234,41.687,157.959,105.896
-0.141,-0.101,-0.286,36.499,160.400,113.831
-0.181,-0.043,-0.311,26.733,163.025,118.713
-0.217,0.032,-0.399,18.677,162.598,120.728
-0.231,0.103,-0.513,9.583,160.278,120.239
-0.225,0.130,-0.608,1.404,157.837,118.225
-0.224,0.153,-0.682,-3.601,156.799,116.577
-0.227,0.194,-0.751,-5.493,158.508,115.662
-0.218,0.293,-0.712,-8.362,163.574,115.479
-0.253,0.198,-0.858,-27.344,178.833,111.938
-0.277,0.102,-1.149,-21.240,194.580,109.253
-0.249,0.297,-1.228,10.620,192.932,119.019
-0.307,0.405,-1.225,14.954,185.181,127.502
-0.403,0.420,-1.318,6.653,180.908,124.817
-0.446,0.448,-1.448,6.470,175.781,117.981
-0.444,0.474,-1.526,11.780,167.786,110.474
-0.427,0.481,-1.518,21.057,158.203,103.271
-0.430,0.486,-1.501,29.846,150.513,98.267
-0.441,0.512,-1.511,33.508,142.944,95.642
-0.456,0.559,-1.551,30.884,133.362,94.421
-0.481,0.590,-1.579,26.917,121.155,92.346
-0.518,0.615,-1.571,24.963,107.666,88.928
-0.545,0.638,-1.570,22.278,96.375,83.862
-0.551,0.653,-1.601,17.334,88.379,76.843
-0.551,0.638,-1.651,13.184,81.482,67.627
-0.542,0.622,-1.693,13.794,73.792,57.861
-0.512,0.627,-1.716,17.517,65.552,49.316
-0.490,0.608,-1.716,19.653,56.580,41.321
-0.475,0.574,-1.725,20.020,46.753,34.119
-0.446,0.561,-1.723,19.348,36.682,27.832
-0.424,0.542,-1.725,16.418,27.649,22.583
-0.407,0.506,-1.783,10.803,19.531,18.005
-0.385,0.475,-1.846,7.141,10.803,13.855
-0.367,0.432,-1.894,7.690,1.343,9.827
-0.355,0.388,-1.923,11.169,-8.545,6.714
-0.344,0.363,-1.931,16.479,-18.738,4.761
-0.330,0.347,-1.931,23.193,-29.602,3.723
-0.321,0.324,-1.860,30.518,-40.955,2.747
-0.324,0.288,-1.783,35.217,-51.514,1.099
-0.310,0.264,-1.758,34.119,-60.547,0.793
-0.298,0.269,-1.743,33.020,-69.458,2.014
-0.306,0.267,-1.704,35.339,-78.674,2.686
-0.321,0.258,-1.650,40.405,-87.036,2.014
-0.330,0.250,-1.620,45.532,-93.567,0.366
-0.331,0.240,-1.614,50.659,-99.609,-1.709
-0.325,0.217,-1.590,57.983,-106.750,-3.052
-0.323,0.184,-1.504,67.444,-114.197,-3.784
-0.315,0.171,-1.398,74.402,-120.239,-3.113
-0.290,0.174,-1.337,74.951,-124.695,-0.183
-0.273,0.188,-1.309,71.411,-129.395,4.272
-0.267,0.233,-1.281,67.993,-135.925,8.850
-0.264,0.272,-1.240,64.636,-143.677,12.390
-0.267,0.300,-1.190,61.401,-149.963,13.367
-0.259,0.334,-1.162,59.021,-153.992,11.475
-0.241,0.324,-1.155,57.495,-156.128,7.446
-0.212,0.269,-1.146,57.800,-157.410,3.174
-0.176,0.218,-1.101,60.608,-159.607,1.526
-0.147,0.197,-1.045,64.026,-162.109,4.395
-0.131,0.177,-1.072,63.477,-165.466,10.376
-0.095,0.238,-1.025,64.026,-170.959,18.127
-0.101,0.262,-1.001,57.983,-175.659,24.719
-0.104,0.304,-0.962,57.312,-179.199,28.442
-0.107,0.346,-0.894,60.364,-182.983,28.809
-0.089,0.348,-0.824,61.584,-185.120,27.039
-0.048,0.324,-0.776,60.364,-185.303,25.085
-0.005,0.305,-0.743,58.655,-184.265,25.635
0.018,0.308,-0.697,57.861,-182.556,29.175
0.024,0.322,-0.641,57.983,-180.725,33.813
0.035,0.351,-0.584,58.411,-177.490,38.879
0.052,0.406,-0.532,58.228,-173.462,42.908
0.068,0.457,-0.514,54.993,-168.274,44.983
0.077,0.502,-0.510,52.063,-163.147,44.800
0.074,0.504,-0.511,49.255,-158.752,42.358
0.072,0.510,-0.473,49.988,-155.396,39.368
0.076,0.525,-0.410,53.650,-152.771,36.194
0.087,0.528,-0.316,56.274,-150.574,32.715
0.102,0.542,-0.219,55.115,-147.583,30.396
0.123,0.578,-0.146,48.523,-143.188,29.663
0.145,0.611,-0.096,38.269,-137.207,28.198
0.161,0.628,-0.096,26.001,-128.540,26.001
0.177,0.615,-0.126,16.968,-118.286,22.827
0.181,0.601,-0.149,14.038,-108.276,19.775
0.190,0.599,-0.146,17.029,-100.159,17.090
0.202,0.601,-0.122,19.714,-93.384,14.954
0.216,0.612,-0.098,20.142,-86.243,13.977
0.220,0.623,-0.075,18.860,-78.979,14.282
0.217,0.652,-0.053,16.846,-71.411,14.587
0.222,0.692,-0.050,12.512,-63.538,13.306
0.228,0.715,-0.061,6.958,-56.274,10.010
0.231,0.725,-0.076,1.587,-50.049,5.066
0.239,0.726,-0.087,-2.380,-43.945,-0.549
0.256,0.702,-0.101,-4.456,-38.208,-5.798
0.287,0.675,-0.109,-5.249,-32.471,-10.315
0.314,0.634,-0.138,-7.141,-26.672,-13.184
0.354,0.620,-0.166,-7.385,-21.423,-13.123
0.384,0.629,-0.185,-7.690,-17.517,-11.963
0.402,0.630,-0.185,-8.118,-13.794,-11.230
0.419,0.644,-0.187,-9.277,-9.705,-10.742
0.438,0.670,-0.216,-12.329,-5.676,-11.230
0.453,0.679,-0.251,-16.174,-2.197,-13.000
0.465,0.671,-0.275,-18.860,1.343,-16.052
0.488,0.661,-0.318,-19.226,5.493,-19.714
0.515,0.643,-0.369,-19.592,8.850,-22.644
0.532,0.611,-0.404,-17.700,11.292,-23.682
0.542,0.575,-0.425,-13.977,12.390,-23.376
0.558,0.564,-0.437,-9.583,13.794,-20.935
0.571,0.580,-0.444,-5.676,14.526,-16.663
0.578,0.608,-0.454,-3.479,14.832,-13.062
0.587,0.633,-0.467,-3.784,14.954,-10.498
0.591,0.648,-0.487,-5.249,15.930,-9.583
0.595,0.649,-0.514,-6.348,16.846,-10.315
0.600,0.642,-0.529,-6.226,16.418,-11.597
0.605,0.645,-0.530,-4.395,15.686,-12.451
0.601,0.643,-0.530,-2.991,15.015,-12.939
0.596,0.630,-0.542,-2.197,13.916,-13.306
0.605,0.606,-0.552,-1.343,12.817,-13.000
0.611,0.591,-0.552,-0.183,11.047,-11.536
0.607,0.584,-0.549,1.282,10.376,-8.240
0.598,0.598,-0.545,1.831,9.766,-5.310
0.589,0.625,-0.541,2.441,9.888,-3.235
0.581,0.645,-0.540,2.808,10.193,-2.502
0.573,0.655,-0.544,2.258,10.986,-3.601
0.571,0.659,-0.551,2.380,11.658,-5.188
0.571,0.649,-0.552,2.563,11.963,-7.141
0.573,0.615,-0.556,2.197,11.597,-8.972
0.589,0.577,-0.557,1.221,10.559,-9.155
0.596,0.555,-0.553,0.122,9.216,-6.836
0.590,0.559,-0.558,-1.221,7.629,-3.357

0.306,-0.183,-0.762,12.085,-2.502,5.920
0.343,-0.131,-0.917,7.141,4.700,5.310
0.318,-0.139,-1.012,10.681,6.042,3.357
0.303,-0.102,-1.061,16.235,0.061,2.991
0.295,-0.129,-1.013,25.269,-8.362,1.648
0.252,-0.133,-0.864,33.508,-15.808,0.000
0.287,-0.100,-0.765,37.659,-16.541,-0.854
0.281,-0.068,-0.815,34.607,-10.925,-3.723
0.276,-0.090,-0.913,32.288,-6.287,-7.324
0.278,-0.121,-0.969,36.743,-7.202,-10.193
0.262,-0.130,-1.003,43.762,-10.376,-8.972
0.256,-0.135,-1.021,48.401,-15.564,-6.287
0.235,-0.149,-1.009,47.241,-22.705,-4.883
0.210,-0.185,-0.938,41.504,-29.846,-2.869
0.182,-0.197,-0.837,32.410,-34.912,0.183
0.177,-0.170,-0.752,22.278,-35.950,4.395
0.161,-0.121,-0.704,14.954,-32.532,8.606
0.168,-0.085,-0.700,12.024,-26.550,12.390
0.175,-0.092,-0.713,13.611,-20.813,15.015
0.186,-0.141,-0.713,20.386,-16.602,17.883
0.182,-0.211,-0.685,32.349,-14.526,22.644
0.183,-0.312,-0.583,44.495,-14.404,29.053
0.213,-0.347,-0.442,54.138,-11.963,37.720
0.147,-0.378,-0.361,57.861,-5.432,46.509
0.113,-0.394,-0.251,54.932,3.784,56.702
-0.087,-0.243,-0.417,45.410,16.296,69.031
0.031,-0.382,-0.351,23.254,20.386,78.491
0.460,-0.396,0.198,36.499,20.447,85.938
0.222,-0.103,0.214,51.941,49.927,101.257
-0.003,-0.028,0.102,30.640,89.905,109.619
0.026,-0.015,-0.055,1.038,122.314,105.896
0.058,0.009,-0.248,-15.930,143.860,97.778
-0.002,0.071,-0.417,-23.376,154.358,91.675
-0.043,0.079,-0.484,-24.658,155.762,86.060
-0.076,0.090,-0.562,-18.860,153.809,80.811
-0.112,0.138,-0.605,-9.521,149.048,76.477
-0.122,0.159,-0.587,-2.197,145.203,69.824
-0.155,0.114,-0.609,0.000,147.583,61.646
-0.200,0.047,-0.689,-3.845,155.090,56.824
-0.240,0.025,-0.808,-9.216,164.429,58.594
-0.281,0.063,-0.941,-12.329,172.363,64.392
-0.302,0.145,-1.056,-13.550,176.208,69.092
-0.310,0.213,-1.168,-15.869,175.659,70.801
-0.308,0.270,-1.277,-18.433,172.485,68.542
-0.307,0.311,-1.389,-20.325,167.725,63.904
-0.307,0.343,-1.491,-19.470,160.400,58.044
-0.321,0.343,-1.579,-14.709,150.513,51.392
-0.335,0.351,-1.632,-7.690,138.489,45.349
-0.335,0.344,-1.659,-0.854,125.854,40.649
-0.335,0.343,-1.691,5.554,115.173,36.804
-0.338,0.353,-1.728,12.390,106.567,33.508
-0.344,0.347,-1.775,18.127,98.450,29.846
-0.344,0.317,-1.816,22.583,88.806,25.269
-0.337,0.276,-1.838,26.611,77.209,21.301
-0.340,0.250,-1.852,29.236,65.125,18.982
-0.341,0.257,-1.854,31.006,53.223,17.090
-0.327,0.265,-1.850,29.907,42.297,14.587
-0.306,0.233,-1.864,27.283,32.227,10.925
-0.303,0.183,-1.888,26.733,22.400,7.446
-0.311,0.158,-1.908,29.114,11.047,6.287
-0.306,0.168,-1.903,31.860,-2.686,6.958
-0.293,0.198,-1.894,33.325,-17.578,7.263
-0.286,0.207,-1.884,34.363,-32.410,5.554
-0.300,0.170,-1.870,37.720,-46.387,2.258
-0.318,0.116,-1.846,42.847,-60.120,-0.122
-0.304,0.098,-1.813,49.438,-73.730,0.000
-0.280,0.121,-1.795,55.420,-85.938,1.648
-0.281,0.152,-1.788,59.692,-96.619,2.808
-0.296,0.165,-1.791,63.477,-107.239,1.831
-0.302,0.147,-1.775,67.383,-117.798,-0.610
-0.285,0.143,-1.746,70.435,-128.174,-1.709
-0.273,0.150,-1.715,73.059,-137.878,-0.854
-0.288,0.131,-1.694,73.669,-147.278,-0.061
-0.357,0.081,-1.669,75.989,-156.555,0.183
-0.406,0.056,-1.595,80.994,-166.504,0.244
-0.351,0.070,-1.472,84.351,-176.208,0.122
-0.277,0.103,-1.355,83.496,-183.533,2.014
-0.233,0.136,-1.283,79.529,-186.890,4.944
-0.217,0.167,-1.255,75.378,-186.951,6.775
-0.204,0.204,-1.243,71.960,-187.439,8.118
-0.175,0.243,-1.229,68.054,-189.758,9.216
-0.136,0.287,-1.216,66.040,-194.275,9.644
-0.147,0.282,-1.206,67.261,-201.294,8.606
-0.185,0.258,-1.143,74.097,-209.900,5.493
-0.159,0.219,-1.014,81.177,-219.971,1.892
-0.101,0.195,-0.889,82.275,-227.478,1.892
-0.061,0.217,-0.775,76.294,-229.736,5.310
-0.025,0.266,-0.702,67.810,-227.173,9.521
0.020,0.318,-0.651,55.969,-222.961,11.658
0.058,0.341,-0.630,44.128,-216.980,11.658
0.073,0.366,-0.613,36.560,-210.815,9.521
0.096,0.379,-0.569,32.104,-205.933,7.935
0.132,0.380,-0.521,28.442,-201.904,7.202
0.168,0.393,-0.479,25.696,-196.838,8.240
0.204,0.431,-0.425,23.926,-189.636,9.949
0.232,0.490,-0.398,22.461,-181.335,11.658
0.253,0.545,-0.378,21.606,-173.401,12.207
0.267,0.581,-0.370,22.339,-166.199,10.193
0.260,0.599,-0.372,25.269,-160.583,5.737
0.258,0.567,-0.356,28.259,-157.166,-1.221
0.282,0.520,-0.315,29.663,-154.602,-8.179
0.303,0.501,-0.262,28.015,-151.306,-13.000
0.316,0.498,-0.217,23.804,-146.912,-14.954
0.335,0.507,-0.177,18.311,-141.418,-15.259
0.349,0.537,-0.144,12.878,-135.864,-15.259
0.353,0.567,-0.116,8.545,-130.737,-15.930
0.357,0.553,-0.095,5.981,-126.160,-18.799
0.367,0.507,-0.065,4.333,-121.948,-22.583
0.398,0.481,-0.018,2.869,-118.103,-24.536
0.432,0.465,0.025,-0.061,-113.525,-24.109
0.462,0.461,0.066,-4.578,-108.643,-23.071
0.478,0.471,0.099,-8.057,-102.051,-22.034
0.479,0.453,0.114,-10.803,-94.238,-22.766
0.482,0.435,0.133,-13.245,-85.205,-23.621
0.492,0.430,0.149,-14.160,-75.745,-23.071
0.504,0.419,0.154,-15.747,-65.796,-22.034
0.527,0.419,0.153,-16.663,-55.115,-20.386
0.545,0.417,0.142,-17.395,-44.189,-18.677
0.560,0.422,0.128,-17.334,-33.447,-17.456
0.575,0.412,0.112,-16.357,-22.644,-16.296
0.594,0.404,0.083,-14.954,-12.329,-15.381
0.615,0.400,0.039,-13.245,-2.502,-14.038
0.634,0.384,-0.003,-12.390,6.470,-13.000
0.653,0.375,-0.048,-12.268,14.465,-11.475
0.676,0.354,-0.096,-12.695,20.508,-9.888
0.695,0.340,-0.140,-12.390,25.208,-7.996
0.706,0.357,-0.193,-11.719,28.320,-5.859
0.718,0.371,-0.246,-11.902,29.541,-4.456
0.732,0.381,-0.283,-11.963,29.419,-3.967
0.743,0.385,-0.310,-11.475,28.381,-4.456
0.751,0.376,-0.329,-11.292,26.733,-5.188
0.757,0.362,-0.347,-12.024,25.269,-5.371
0.778,0.366,-0.352,-12.878,24.170,-4.578
0.795,0.391,-0.365,-13.062,23.804,-2.808
0.803,0.402,-0.386,-13.245,23.987,-1.160
0.805,0.414,-0.411,-11.963,24.414,-0.488
0.806,0.438,-0.442,-9.583,24.414,0.122
0.815,0.456,-0.473,-7.996,23.193,0.305
0.821,0.454,-0.494,-7.690,21.179,-0.793
0.818,0.447,-0.502,-5.981,18.982,-2.869
0.806,0.433,-0.500,-3.967,16.357,-4.333
0.799,0.409,-0.492,-3.052,13.733,-5.066
0.801,0.388,-0.474,-3.540,12.207,-4.395
0.805,0.394,-0.459,-3.906,12.207,-2.502
0.806,0.416,-0.445,-5.127,14.099,0.061
0.804,0.441,-0.452,-6.409,16.357,0.916
0.809,0.439,-0.489,-9.216,18.738,0.549
0.814,0.440,-0.521,-10.376,20.264,0.610
0.808,0.441,-0.554,-8.850,20.081,1.953

0.499,-0.459,-0.412,-18.860,-10.315,-39.368
0.504,-0.554,-0.111,-15.991,-3.296,-29.419
0.465,-0.504,-0.151,-18.494,16.968,-15.808
0.491,-0.445,-0.260,-26.978,44.495,-5.310
0.483,-0.372,-0.471,-35.156,65.247,2.014
0.486,-0.211,-0.737,-32.166,73.853,6.470
0.499,-0.135,-0.918,-14.465,68.542,5.737
0.484,-0.232,-0.826,11.108,53.101,-0.061
0.454,-0.333,-0.655,34.363,39.307,-3.967
0.447,-0.385,-0.589,41.504,35.217,-2.563
0.405,-0.458,-0.592,36.499,36.194,1.770
0.359,-0.465,-0.608,30.701,37.109,8.484
0.328,-0.432,-0.605,26.001,36.133,16.052
0.311,-0.409,-0.568,21.606,34.851,22.339
0.301,-0.395,-0.508,18.250,35.522,27.283
0.293,-0.392,-0.440,17.761,38.330,31.982
0.279,-0.398,-0.350,21.606,43.945,37.964
0.255,-0.377,-0.249,28.381,52.246,45.105
0.221,-0.381,-0.165,34.302,63.416,52.979
0.169,-0.397,-0.117,37.292,77.698,61.768
0.101,-0.418,-0.171,37.781,94.604,72.021
0.136,-0.423,-0.184,39.612,108.459,82.275
0.154,-0.391,-0.051,45.776,118.713,92.773
-0.058,-0.280,-0.395,56.458,132.385,104.187
-0.093,-0.147,-0.302,45.715,131.287,112.366
-0.053,-0.181,-0.148,38.757,132.935,115.601
0.141,-0.112,-0.029,31.616,142.639,118.164
-0.044,0.094,-0.246,24.719,166.260,121.887
-0.149,0.109,-0.362,8.240,186.462,119.873
-0.126,0.119,-0.531,2.502,198.669,113.464
-0.099,0.164,-0.689,8.667,203.369,107.971
-0.114,0.209,-0.801,18.494,200.195,105.774
-0.126,0.250,-0.853,29.480,192.505,104.004
-0.124,0.329,-0.870,39.978,183.105,100.586
-0.136,0.392,-0.851,44.617,174.927,95.093
-0.149,0.343,-0.859,40.649,172.729,85.754
-0.209,0.201,-0.944,37.903,174.683,77.332
-0.258,0.190,-0.953,45.837,173.157,79.285
-0.259,0.299,-0.918,52.551,172.241,86.914
-0.253,0.408,-0.965,48.645,177.673,89.783
-0.296,0.503,-1.078,38.269,185.120,87.158
-0.311,0.592,-1.240,24.719,190.552,80.383
-0.310,0.607,-1.402,13.367,191.406,69.519
-0.326,0.552,-1.532,10.315,186.340,57.129
-0.357,0.464,-1.632,13.245,174.866,47.546
-0.375,0.382,-1.661,17.029,159.119,42.847
-0.367,0.356,-1.664,19.470,143.250,43.091
-0.377,0.383,-1.671,19.592,128.906,44.861
-0.391,0.446,-1.691,17.395,115.784,44.373
-0.392,0.481,-1.705,14.404,102.783,39.856
-0.395,0.465,-1.710,14.099,89.966,34.119
-0.402,0.434,-1.716,15.503,76.904,29.297
-0.394,0.408,-1.714,15.991,64.270,25.818
-0.372,0.384,-1.700,15.625,53.101,22.949
-0.367,0.383,-1.709,14.404,44.739,19.897
-0.381,0.384,-1.725,13.794,37.903,16.174
-0.387,0.358,-1.739,13.977,31.250,11.536
-0.392,0.297,-1.752,15.259,25.269,7.019
-0.384,0.260,-1.768,17.578,19.287,4.028
-0.367,0.238,-1.803,18.677,13.428,2.197
-0.354,0.219,-1.849,17.944,7.202,1.648
-0.344,0.199,-1.903,16.418,-0.122,1.526
-0.337,0.169,-1.943,15.015,-8.850,1.465
-0.337,0.142,-1.958,15.991,-20.386,2.380
-0.340,0.133,-1.947,18.005,-34.424,3.784
-0.336,0.142,-1.916,20.020,-49.072,5.371
-0.329,0.144,-1.875,20.935,-63.782,6.226
-0.323,0.145,-1.837,21.240,-77.576,7.019
-0.321,0.143,-1.802,21.667,-90.637,7.568
-0.320,0.143,-1.752,23.437,-102.905,7.935
-0.328,0.136,-1.690,27.710,-114.319,8.240
-0.351,0.119,-1.623,32.715,-124.878,8.972
-0.361,0.118,-1.549,38.452,-133.484,10.559
-0.357,0.144,-1.467,44.556,-140.686,12.695
-0.361,0.167,-1.405,46.814,-146.912,14.221
-0.359,0.177,-1.359,46.814,-151.245,15.137
-0.340,0.194,-1.307,47.058,-154.907,15.625
-0.316,0.221,-1.260,46.448,-158.203,16.968
-0.297,0.254,-1.217,45.166,-161.316,19.104
-0.288,0.287,-1.186,44.983,-163.391,20.386
-0.279,0.305,-1.158,47.363,-165.344,19.409
-0.271,0.303,-1.130,49.011,-168.518,16.724
-0.256,0.285,-1.131,50.415,-172.119,13.062
-0.221,0.272,-1.065,52.429,-176.636,10.254
-0.185,0.263,-1.035,50.232,-178.833,8.789
-0.154,0.263,-1.024,47.852,-179.016,7.996
-0.122,0.276,-1.009,45.532,-180.359,7.690
-0.088,0.292,-0.996,43.762,-182.373,7.507
-0.063,0.313,-0.975,42.542,-185.608,6.775
-0.040,0.334,-0.948,41.931,-188.904,5.981
-0.029,0.339,-0.906,41.626,-192.566,5.371
-0.031,0.325,-0.833,42.847,-196.228,4.700
-0.035,0.305,-0.751,45.471,-199.402,4.639
-0.022,0.312,-0.655,48.950,-201.050,4.333
0.017,0.335,-0.570,48.828,-199.768,3.662
0.069,0.364,-0.513,45.471,-195.251,3.174
0.113,0.390,-0.468,41.931,-188.538,2.197
0.150,0.404,-0.439,39.368,-181.458,0.732
0.175,0.425,-0.413,38.696,-176.025,-0.061
0.197,0.465,-0.370,38.452,-172.302,-1.587
0.215,0.496,-0.320,38.025,-170.105,-4.639
0.234,0.486,-0.262,36.499,-167.969,-8.545
0.243,0.440,-0.211,33.875,-164.490,-13.123
0.250,0.387,-0.162,29.724,-159.363,-15.808
0.271,0.361,-0.111,23.804,-152.527,-16.113
0.318,0.355,0.058,16.663,-144.104,-14.221
0.340,0.394,0.043,7.446,-130.615,-10.010
0.351,0.424,-0.018,-5.066,-115.601,-5.493
0.396,0.455,-0.010,-14.282,-104.065,-3.906
0.421,0.480,-0.024,-18.188,-92.896,-4.333
0.442,0.497,-0.050,-19.409,-82.764,-5.066
0.473,0.520,-0.067,-18.616,-73.975,-5.676
0.500,0.516,-0.096,-16.663,-65.308,-6.531
0.510,0.477,-0.127,-12.756,-57.373,-7.141
0.520,0.448,-0.126,-4.944,-50.903,-7.141
0.538,0.448,-0.116,1.221,-45.654,-6.226
0.562,0.450,-0.119,3.235,-39.917,-5.249
0.582,0.445,-0.127,3.418,-33.142,-5.310
0.596,0.423,-0.142,1.160,-25.757,-5.859
0.613,0.391,-0.170,-1.526,-18.311,-5.920
0.642,0.388,-0.221,-4.700,-11.780,-4.761
0.674,0.406,-0.285,-6.958,-6.775,-2.258
0.690,0.426,-0.342,-6.897,-5.005,-0.061
0.693,0.440,-0.359,-3.601,-5.737,0.549
0.690,0.452,-0.352,-0.793,-7.812,0.183
0.684,0.469,-0.347,0.183,-9.033,-0.732
0.687,0.464,-0.327,-0.488,-9.155,-2.502
0.723,0.418,-0.295,-2.197,-7.812,-4.333
0.725,0.419,-0.310,-2.747,-3.723,-4.028
0.724,0.424,-0.336,-3.723,2.075,-2.930
0.720,0.440,-0.375,-3.906,7.629,-0.916
0.716,0.482,-0.421,-3.113,11.597,1.038
0.714,0.514,-0.450,0.610,14.282,1.709
0.720,0.529,-0.475,6.470,15.747,0.610
0.735,0.531,-0.497,12.207,15.869,-0.977
0.738,0.536,-0.482,17.395,15.564,-2.502
0.726,0.527,-0.505,21.973,15.503,-3.784
0.726,0.490,-0.510,24.353,14.343,-4.700
0.731,0.484,-0.489,25.574,12.146,-4.761
0.722,0.473,-0.472,24.475,10.071,-4.395
0.721,0.449,-0.458,20.325,8.545,-4.578
0.726,0.455,-0.453,14.771,8.301,-4.211
0.724,0.476,-0.468,7.080,8.667,-3.235
0.722,0.501,-0.486,0.427,8.850,-3.235
0.719,0.509,-0.493,-2.014,8.423,-4.761
0.723,0.500,-0.495,-0.977,7.751,-6.165
0.724,0.483,-0.491,0.977,6.836,-6.836
0.725,0.459,-0.482,3.906,6.592,-6.775
0.721,0.452,-0.467,5.920,7.080,-6.287

0.381,0.245,-0.693,10.620,23.315,-2.014
0.422,0.269,-0.619,18.188,23.010,4.517
0.385,0.277,-0.696,20.752,23.804,10.376
0.382,0.283,-0.681,21.790,24.231,15.076
0.349,0.263,-0.670,21.118,23.621,19.165
0.374,0.252,-0.720,18.494,23.254,24.048
0.382,0.279,-0.819,15.686,21.057,29.175
0.390,0.306,-0.831,16.907,13.062,32.410
0.394,0.255,-0.760,17.944,2.869,33.264
0.370,0.158,-0.727,11.108,-4.089,34.180
0.348,0.119,-0.703,0.549,-8.789,39.368
0.330,0.082,-0.645,-7.507,-12.878,46.204
0.325,0.026,-0.594,-13.245,-14.282,53.467
0.282,-0.033,-0.558,-18.860,-13.123,63.110
0.259,-0.054,-0.535,-21.423,-10.498,74.707
0.223,-0.068,-0.536,-18.616,-7.080,87.585
0.169,-0.073,-0.557,-9.094,-4.944,101.624
0.119,-0.067,-0.542,4.822,-5.920,115.967
0.086,0.017,-0.443,19.592,-10.437,128.540
0.088,0.035,-0.318,28.076,-15.869,136.414
0.081,0.060,-0.237,29.602,-17.273,140.930
0.015,0.048,-0.192,27.466,-15.015,146.729
-0.098,0.126,-0.247,21.667,-10.071,155.273
-0.012,0.123,-0.070,13.062,-2.197,164.490
-0.074,0.220,-0.045,11.658,5.432,171.387
-0.102,0.321,-0.014,7.812,16.602,178.162
-0.134,0.411,-0.015,7.690,31.616,183.899
-0.157,0.513,-0.095,12.268,48.645,189.392
-0.113,0.725,-0.267,25.330,61.829,194.092
-0.111,0.802,-0.317,40.344,67.566,195.862
-0.195,0.999,-0.437,45.715,75.867,195.496
-0.150,1.113,-0.596,50.293,75.928,191.406
-0.100,1.176,-0.697,53.528,68.665,183.167
-0.120,1.262,-0.713,57.556,58.044,174.255
-0.136,1.313,-0.680,57.312,44.861,166.016
-0.145,1.356,-0.615,53.833,33.447,157.227
-0.151,1.380,-0.535,46.936,26.001,148.437
-0.157,1.431,-0.485,38.391,23.499,140.808
-0.181,1.523,-0.468,30.945,23.865,134.277
-0.184,1.598,-0.471,27.649,25.085,126.099
-0.175,1.652,-0.500,27.771,26.184,115.479
-0.158,1.660,-0.560,29.175,27.039,103.699
-0.160,1.626,-0.609,31.433,25.085,91.614
-0.195,1.570,-0.642,34.851,19.653,80.627
-0.146,1.520,-0.563,38.330,11.719,71.960
-0.143,1.536,-0.516,37.903,5.066,65.430
-0.138,1.516,-0.484,31.555,2.808,56.946
-0.118,1.475,-0.486,22.522,2.625,47.302
-0.095,1.441,-0.502,13.794,2.441,38.147
-0.076,1.408,-0.516,7.812,1.160,29.541
-0.057,1.359,-0.530,5.127,-0.549,21.790
-0.038,1.303,-0.535,6.653,-2.441,15.137
-0.034,1.219,-0.516,11.902,-4.517,10.925
-0.050,1.194,-0.475,18.311,-5.798,9.949
-0.045,1.200,-0.431,21.606,-5.676,10.010
-0.033,1.198,-0.407,19.714,-3.784,8.789
-0.045,1.186,-0.421,15.137,-0.244,6.470
-0.058,1.188,-0.459,9.888,3.662,3.418
-0.067,1.192,-0.500,5.554,5.981,0.366
-0.076,1.210,-0.535,3.845,6.531,-2.380
-0.080,1.199,-0.567,4.944,5.554,-5.554
-0.084,1.185,-0.592,7.141,3.906,-8.545
-0.087,1.160,-0.601,8.118,1.709,-10.620
-0.086,1.135,-0.610,6.836,0.366,-12.085
-0.085,1.124,-0.624,3.662,-0.732,-13.489
-0.086,1.129,-0.648,0.977,-2.136,-15.381
-0.090,1.144,-0.684,-1.953,-3.601,-17.883
-0.091,1.135,-0.730,-6.409,-5.676,-20.935
-0.094,1.182,-0.787,-10.986,-8.179,-23.437
-0.084,1.227,-0.849,-14.648,-11.475,-26.306
-0.089,1.220,-0.892,-14.954,-16.724,-31.799
-0.098,1.176,-0.908,-10.986,-22.644,-37.598
-0.103,1.145,-0.900,-6.714,-28.931,-40.771
-0.105,1.129,-0.886,-3.296,-35.278,-42.297
-0.113,1.149,-0.875,-1.831,-40.894,-43.762
-0.112,1.199,-0.886,-1.831,-45.105,-46.143
-0.112,1.203,-0.928,-5.066,-48.645,-50.232
-0.109,1.188,-0.984,-8.301,-54.260,-55.237
-0.102,1.173,-1.002,-8.850,-62.134,-60.120
-0.103,1.150,-0.986,-6.836,-71.899,-64.331
-0.101,1.127,-0.947,-4.089,-81.848,-67.932
-0.100,1.122,-0.894,0.427,-90.332,-70.190
-0.101,1.089,-0.842,5.310,-97.290,-72.266
-0.100,1.058,-0.800,9.521,-102.844,-74.097
-0.093,1.069,-0.769,11.658,-107.422,-75.256
-0.077,1.107,-0.761,10.864,-111.389,-76.660
-0.066,1.117,-0.773,8.911,-114.624,-80.078
-0.057,1.103,-0.776,8.911,-118.347,-84.290
-0.048,1.067,-0.750,11.475,-123.962,-87.952
-0.042,1.024,-0.709,15.564,-130.249,-90.637
-0.033,1.014,-0.650,20.020,-136.047,-92.041
-0.017,1.010,-0.589,23.376,-141.052,-94.055
0.001,1.008,-0.536,24.841,-144.653,-96.619
0.004,0.990,-0.495,24.719,-146.790,-99.548
0.013,0.950,-0.462,24.353,-147.949,-102.966
0.025,0.907,-0.443,23.682,-149.353,-105.042
0.034,0.878,-0.427,23.804,-151.855,-105.957
0.044,0.882,-0.388,24.475,-155.029,-106.995
0.068,0.869,-0.333,24.902,-157.654,-109.131
0.097,0.821,-0.285,24.719,-159.058,-111.816
0.119,0.797,-0.244,23.193,-160.156,-113.892
0.131,0.765,-0.206,22.217,-160.400,-114.502
0.143,0.724,-0.160,23.804,-161.011,-115.234
0.166,0.701,-0.102,27.222,-161.621,-115.967
0.184,0.672,-0.053,29.236,-161.560,-116.394
0.203,0.613,-0.016,29.297,-159.851,-116.516
0.225,0.531,0.011,27.100,-157.532,-115.784
0.233,0.472,0.032,23.926,-155.334,-112.854
0.235,0.427,0.061,21.362,-154.785,-107.727
0.238,0.414,0.116,19.226,-155.396,-101.868
0.239,0.424,0.187,17.334,-155.579,-96.252
0.245,0.433,0.273,15.808,-154.236,-91.736
0.260,0.461,0.355,13.489,-149.780,-87.708
0.285,0.498,0.413,10.132,-142.517,-84.229
0.310,0.506,0.437,5.859,-133.240,-82.581
0.328,0.490,0.442,3.662,-122.986,-81.299
0.351,0.456,0.455,4.211,-112.976,-78.979
0.378,0.436,0.477,5.920,-104.614,-75.134
0.404,0.427,0.499,7.690,-96.436,-70.496
0.428,0.409,0.510,9.338,-87.952,-65.674
0.455,0.366,0.508,10.315,-78.674,-61.218
0.480,0.326,0.500,9.216,-69.641,-55.847
0.503,0.328,0.496,6.958,-60.913,-48.828
0.527,0.351,0.498,4.883,-54.138,-41.992
0.542,0.371,0.500,2.014,-48.035,-36.865
0.555,0.392,0.502,0.427,-41.077,-32.898
0.572,0.412,0.493,-2.380,-33.813,-30.273
0.585,0.422,0.465,-5.676,-26.123,-27.832
0.592,0.426,0.427,-7.446,-19.836,-26.001
0.597,0.419,0.390,-7.935,-15.747,-24.475
0.613,0.413,0.364,-7.080,-13.672,-22.217
0.626,0.411,0.360,-4.761,-12.573,-19.409
0.636,0.417,0.377,-2.747,-11.963,-16.296
0.648,0.436,0.402,-1.343,-9.949,-13.794
0.660,0.436,0.407,-2.563,-6.836,-12.390
0.670,0.448,0.395,-5.066,-1.770,-11.353
0.687,0.458,0.371,-8.789,4.028,-10.681
0.699,0.458,0.330,-12.878,9.827,-9.827
0.714,0.473,0.284,-16.052,14.282,-8.423
0.728,0.499,0.227,-16.968,16.602,-6.958
0.746,0.504,0.171,-16.663,17.517,-6.226
0.747,0.499,0.136,-14.221,16.785,-5.371
0.754,0.492,0.140,-9.521,14.648,-3.479
0.767,0.497,0.170,-3.418,12.207,-0.977
0.779,0.512,0.209,1.282,11.597,1.648
0.785,0.529,0.227,2.869,14.038,4.028
0.783,0.542,0.213,1.953,18.616,5.737
0.779,0.548,0.177,0.061,23.621,6.775
0.782,0.552,0.140,-1.404,26.855,7.690

0.453,0.330,-0.924,2.258,8.362,16.541
0.504,0.397,-0.775,-0.183,6.775,18.677
0.474,0.437,-0.830,13.977,8.728,17.944
0.482,0.418,-0.807,23.376,8.118,13.916
0.456,0.356,-0.776,28.687,7.080,10.315
0.459,0.337,-0.763,29.236,6.042,8.789
0.437,0.349,-0.778,25.208,6.470,9.216
0.432,0.339,-0.793,18.799,5.371,9.521
0.413,0.327,-0.788,12.024,3.296,10.437
0.406,0.309,-0.777,5.249,0.854,13.000
0.388,0.324,-0.750,-2.014,-0.793,16.602
0.381,0.361,-0.722,-7.324,-1.526,20.447
0.375,0.352,-0.704,-10.986,-1.038,22.339
0.367,0.324,-0.653,-11.230,0.549,24.170
0.350,0.276,-0.586,-10.071,3.357,26.672
0.343,0.238,-0.557,-8.972,8.972,30.090
0.335,0.183,-0.610,-9.338,15.625,35.156
0.306,0.159,-0.669,-6.714,19.470,42.297
0.285,0.192,-0.683,-0.610,18.982,51.025
0.245,0.208,-0.653,5.493,17.151,58.289
0.212,0.172,-0.574,10.010,15.503,62.134
0.220,0.168,-0.483,12.573,17.395,65.186
0.178,0.175,-0.465,10.559,24.902,69.885
0.141,0.233,-0.444,9.766,35.034,75.378
0.130,0.233,-0.400,4.761,46.692,79.773
0.131,0.351,-0.410,1.831,51.880,82.581
0.110,0.431,-0.496,0.854,60.303,84.351
0.135,0.513,-0.508,4.456,66.467,81.970
0.119,0.525,-0.543,7.690,71.960,76.111
0.103,0.496,-0.573,9.155,77.271,69.824
0.089,0.469,-0.625,7.996,82.214,66.040
0.065,0.453,-0.705,6.042,86.121,65.125
0.051,0.438,-0.752,3.540,87.097,65.613
0.056,0.435,-0.775,1.343,86.304,67.200
0.054,0.457,-0.804,-0.305,85.022,69.824
0.040,0.492,-0.823,-2.747,83.801,71.716
0.027,0.553,-0.849,-5.188,81.604,71.960
0.040,0.611,-0.892,-7.751,80.017,70.068
0.043,0.640,-0.945,-8.728,78.186,66.284
0.029,0.642,-0.986,-7.080,75.195,62.195
0.027,0.647,-1.004,-2.747,71.167,58.105
0.037,0.648,-1.033,0.000,67.505,54.443
0.043,0.635,-1.067,0.977,64.575,51.697
0.038,0.638,-1.104,1.221,61.279,49.927
0.033,0.655,-1.147,0.000,56.641,48.157
0.028,0.659,-1.175,-1.221,50.720,46.265
0.021,0.646,-1.187,-1.404,43.945,43.823
0.013,0.630,-1.183,-2.441,37.292,41.931
0.005,0.641,-1.175,-2.808,32.227,41.565
0.010,0.670,-1.189,-3.906,27.832,40.833
0.006,0.708,-1.233,-6.165,24.658,39.307
0.006,0.734,-1.284,-6.226,21.912,37.109
0.009,0.763,-1.332,-2.930,18.494,33.386
0.022,0.782,-1.364,1.221,13.611,28.931
0.028,0.785,-1.396,5.859,7.935,23.987
0.034,0.759,-1.420,10.742,1.831,19.165
0.036,0.707,-1.434,14.648,-4.761,15.381
0.032,0.672,-1.433,17.456,-11.780,13.672
0.035,0.681,-1.413,18.555,-19.287,13.550
0.036,0.708,-1.406,15.564,-26.917,13.000
0.027,0.725,-1.402,11.414,-34.119,10.925
0.028,0.741,-1.398,7.874,-41.199,7.812
0.035,0.745,-1.399,5.371,-48.340,4.150
0.044,0.738,-1.395,5.432,-55.237,1.038
0.047,0.726,-1.380,7.080,-62.683,-2.197
0.042,0.702,-1.358,9.033,-70.740,-4.944
0.047,0.685,-1.342,11.719,-77.087,-7.690
0.052,0.658,-1.334,13.123,-81.604,-10.498
0.057,0.623,-1.316,14.343,-86.365,-12.695
0.064,0.603,-1.291,16.296,-91.309,-14.099
0.065,0.600,-1.272,17.212,-96.008,-14.832
0.075,0.621,-1.262,16.785,-100.464,-15.808
0.090,0.637,-1.262,14.893,-105.164,-17.761
0.092,0.634,-1.265,15.137,-111.084,-20.325
0.086,0.619,-1.249,18.555,-119.019,-22.339
0.083,0.603,-1.196,24.109,-128.601,-23.804
0.071,0.592,-1.120,29.236,-137.268,-24.902
0.074,0.603,-1.053,30.396,-143.677,-26.367
0.094,0.604,-1.020,25.085,-146.484,-28.748
0.113,0.571,-1.020,16.907,-147.156,-31.921
0.137,0.557,-1.025,12.756,-148.621,-32.227
0.151,0.547,-1.008,10.864,-151.611,-30.396
0.161,0.546,-1.006,9.949,-154.175,-27.832
0.165,0.560,-0.993,11.475,-157.410,-25.024
0.180,0.573,-0.953,13.977,-161.743,-24.414
0.198,0.567,-0.909,15.808,-165.405,-26.184
0.215,0.542,-0.870,16.113,-168.091,-28.381
0.220,0.516,-0.833,14.893,-170.471,-29.053
0.232,0.499,-0.799,14.221,-172.607,-28.381
0.229,0.492,-0.756,15.930,-174.805,-25.879
0.250,0.504,-0.695,18.433,-177.002,-23.193
0.276,0.520,-0.627,19.470,-178.589,-21.240
0.294,0.535,-0.583,17.273,-177.979,-19.592
0.297,0.539,-0.558,13.672,-175.903,-18.616
0.294,0.532,-0.529,11.719,-173.645,-18.372
0.291,0.505,-0.496,11.475,-171.875,-17.273
0.289,0.495,-0.439,13.672,-170.410,-15.137
0.298,0.512,-0.365,18.188,-169.006,-12.573
0.301,0.527,-0.300,19.897,-167.358,-11.719
0.307,0.521,-0.237,18.860,-164.001,-11.719
0.312,0.533,-0.180,17.822,-159.241,-11.536
0.314,0.555,-0.129,16.724,-154.480,-11.108
0.319,0.568,-0.075,15.625,-150.024,-11.658
0.326,0.572,-0.020,15.259,-144.897,-12.390
0.334,0.562,0.029,13.489,-139.709,-13.977
0.350,0.535,0.070,10.132,-132.751,-15.503
0.360,0.497,0.107,5.188,-125.244,-16.235
0.371,0.487,0.156,0.305,-116.455,-14.893
0.391,0.499,0.201,-5.432,-107.178,-12.817
0.420,0.516,0.242,-12.207,-97.473,-12.024
0.436,0.527,0.264,-18.127,-86.731,-12.207
0.445,0.525,0.260,-22.522,-74.585,-12.817
0.465,0.515,0.224,-25.208,-61.157,-12.634
0.483,0.525,0.172,-25.818,-48.767,-10.986
0.497,0.543,0.125,-22.522,-39.368,-8.606
0.506,0.548,0.103,-15.564,-32.959,-7.324
0.523,0.547,0.102,-5.554,-28.381,-7.446
0.545,0.531,0.107,1.465,-24.231,-7.996
0.571,0.500,0.113,3.418,-19.043,-8.179
0.594,0.487,0.109,1.038,-13.550,-7.935
0.602,0.493,0.108,-1.892,-8.240,-7.080
0.616,0.485,0.095,-5.615,-3.479,-6.836
0.632,0.481,0.065,-9.216,1.587,-6.470
0.647,0.501,0.024,-11.841,7.263,-5.432
0.662,0.522,-0.026,-12.939,11.902,-4.944
0.684,0.532,-0.063,-12.146,14.587,-4.883
0.708,0.522,-0.090,-8.667,16.357,-5.066
0.723,0.507,-0.115,-5.676,17.578,-5.249
0.733,0.489,-0.140,-4.517,19.043,-4.822
0.744,0.486,-0.162,-3.906,20.569,-3.601
0.761,0.500,-0.177,-3.357,21.973,-2.563
0.772,0.499,-0.205,-3.784,23.071,-1.831
0.783,0.508,-0.230,-4.944,24.109,-1.221
0.799,0.541,-0.247,-6.775,24.719,-0.549
0.811,0.558,-0.288,-8.606,25.879,-0.183
0.825,0.573,-0.318,-8.240,25.879,-0.610
0.827,0.572,-0.357,-6.836,26.123,-2.136
0.828,0.545,-0.382,-3.967,24.353,-3.418
0.822,0.526,-0.391,-0.977,21.240,-3.418
0.833,0.524,-0.377,1.831,17.761,-2.319
0.840,0.538,-0.367,3.479,14.771,-1.160
0.828,0.546,-0.362,2.869,13.184,-0.671
0.808,0.546,-0.363,1.892,12.451,-1.099
0.796,0.536,-0.356,1.099,11.230,-1.831
0.798,0.538,-0.353,-0.916,10.376,-1.831
0.802,0.546,-0.355,-2.991,10.071,-1.526
0.796,0.548,-0.363,-4.333,10.193,-1.587
0.789,0.544,-0.372,-4.517,9.705,-2.502
0.790,0.540,-0.383,-4.761,9.338,-2.686

0.518,-0.603,-0.349,-41.809,26.550,-20.691
0.514,-0.529,-0.154,-31.067,30.640,-6.287
0.371,-0.381,-0.148,-24.048,36.865,3.662
0.408,-0.294,-0.131,-27.405,49.683,9.338
0.366,-0.273,-0.186,-30.029,64.392,12.024
0.318,-0.257,-0.191,-25.146,74.890,13.550
0.312,-0.236,-0.180,-15.808,82.458,16.479
0.300,-0.238,-0.151,-7.385,89.844,19.592
0.278,-0.250,-0.113,0.366,97.229,22.034
0.266,-0.275,-0.107,4.089,105.103,24.658
0.234,-0.289,-0.096,5.554,112.366,27.832
0.186,-0.321,-0.054,6.165,119.080,32.166
0.130,-0.363,0.000,5.676,127.563,38.940
0.085,-0.358,0.070,4.944,138.489,48.462
0.059,-0.314,0.132,3.479,151.306,57.434
0.019,-0.282,0.113,0.183,166.382,64.514
-0.031,-0.239,0.047,-1.404,180.725,70.129
-0.076,-0.161,-0.097,1.831,191.895,74.646
-0.085,-0.039,-0.288,8.118,197.754,78.308
-0.122,-0.005,-0.434,14.709,197.693,78.064
-0.153,-0.024,-0.499,20.752,193.481,73.364
-0.219,-0.080,-0.547,23.254,188.477,67.627
-0.226,-0.103,-0.559,20.325,187.134,65.125
-0.258,-0.081,-0.648,14.465,190.369,65.430
-0.389,-0.057,-0.901,11.475,199.524,66.833
-0.322,-0.127,-0.846,0.671,209.351,69.397
-0.341,-0.097,-1.018,-2.625,217.224,73.303
-0.346,0.007,-1.260,-1.099,225.159,78.613
-0.327,0.100,-1.473,6.104,227.112,80.627
-0.336,0.172,-1.488,15.442,223.938,77.026
-0.299,0.025,-1.724,14.221,224.121,67.444
-0.317,-0.110,-1.945,31.616,209.534,63.965
-0.294,-0.004,-1.791,67.627,177.856,75.134
-0.252,0.125,-1.621,90.271,156.494,84.778
-0.239,0.106,-1.589,86.121,146.423,83.862
-0.251,0.044,-1.589,74.524,135.803,79.102
-0.251,0.030,-1.536,66.223,123.230,78.186
-0.272,0.045,-1.504,58.899,114.258,82.397
-0.293,0.090,-1.488,55.176,107.849,88.562
-0.283,0.145,-1.461,55.542,100.891,93.628
-0.267,0.228,-1.461,55.176,93.750,97.351
-0.263,0.271,-1.486,51.880,86.731,98.145
-0.265,0.272,-1.499,48.218,79.285,96.619
-0.285,0.258,-1.512,45.532,71.777,95.581
-0.307,0.224,-1.521,43.152,64.514,95.886
-0.325,0.206,-1.514,42.358,56.885,97.900
-0.337,0.220,-1.493,43.884,49.377,101.990
-0.327,0.281,-1.474,44.739,42.847,105.713
-0.312,0.382,-1.485,42.542,37.415,107.239
-0.320,0.455,-1.548,36.926,32.654,105.042
-0.313,0.473,-1.616,31.067,26.855,98.572
-0.306,0.461,-1.682,28.076,19.531,91.248
-0.310,0.443,-1.736,28.137,10.254,85.815
-0.311,0.447,-1.784,30.701,-0.732,82.642
-0.311,0.467,-1.811,33.508,-12.939,79.773
-0.307,0.486,-1.825,35.950,-26.428,76.599
-0.310,0.479,-1.835,37.537,-40.222,72.754
-0.300,0.487,-1.832,38.391,-53.650,69.458
-0.297,0.508,-1.830,38.574,-67.749,66.406
-0.299,0.544,-1.812,39.612,-81.909,63.049
-0.287,0.573,-1.772,41.748,-95.459,58.838
-0.278,0.582,-1.736,45.593,-108.276,54.504
-0.286,0.577,-1.702,51.392,-119.995,50.659
-0.294,0.572,-1.653,58.105,-131.042,48.035
-0.295,0.569,-1.599,63.843,-140.625,45.654
-0.283,0.571,-1.550,67.322,-148.376,42.847
-0.263,0.576,-1.538,69.336,-154.358,39.795
-0.231,0.603,-1.540,71.960,-160.095,36.316
-0.201,0.641,-1.564,74.829,-168.030,31.738
-0.179,0.655,-1.567,79.468,-179.016,25.085
-0.175,0.670,-1.522,87.463,-192.627,16.602
-0.194,0.651,-1.462,95.703,-206.604,7.141
-0.215,0.614,-1.398,103.333,-217.773,-1.282
-0.219,0.571,-1.293,111.511,-226.013,-7.324
-0.242,0.500,-1.188,115.967,-231.201,-11.597
-0.240,0.454,-1.066,117.615,-232.666,-13.550
-0.203,0.481,-0.978,115.417,-231.018,-13.306
-0.151,0.536,-0.965,106.934,-226.807,-12.390
-0.095,0.586,-1.010,98.816,-223.022,-12.878
-0.064,0.629,-1.046,97.900,-223.633,-16.418
-0.052,0.627,-1.040,104.431,-230.652,-22.583
-0.054,0.544,-0.997,112.671,-241.394,-30.518
-0.048,0.436,-0.911,119.873,-252.502,-37.842
-0.037,0.351,-0.794,123.474,-261.414,-42.297
-0.035,0.275,-0.650,121.338,-266.541,-42.114
-0.016,0.283,-0.486,116.150,-267.456,-38.818
0.012,0.311,-0.341,106.323,-264.221,-35.278
0.051,0.343,-0.238,93.872,-256.897,-33.203
0.085,0.381,-0.197,83.069,-245.300,-31.921
0.120,0.412,-0.187,76.660,-231.628,-28.687
0.141,0.429,-0.177,78.003,-219.543,-24.292
0.162,0.441,-0.141,85.938,-209.534,-20.203
0.188,0.455,-0.056,98.999,-201.416,-17.090
0.208,0.490,0.066,111.450,-193.970,-15.747
0.225,0.512,0.166,117.432,-183.655,-16.785
0.240,0.493,0.229,118.713,-170.654,-18.494
0.259,0.463,0.269,116.516,-157.104,-20.020
0.281,0.444,0.296,113.220,-144.287,-19.714
0.294,0.432,0.325,109.009,-133.362,-18.250
0.299,0.448,0.367,105.225,-124.634,-16.418
0.296,0.474,0.422,101.868,-117.554,-15.381
0.291,0.480,0.485,98.267,-110.413,-15.503
0.290,0.479,0.528,92.041,-102.173,-17.273
0.285,0.477,0.558,83.679,-92.712,-19.531
0.289,0.451,0.577,73.059,-83.557,-22.400
0.298,0.442,0.599,60.852,-74.036,-24.170
0.310,0.459,0.621,47.913,-65.002,-24.658
0.323,0.477,0.636,35.339,-55.176,-23.865
0.345,0.501,0.634,22.644,-44.128,-23.254
0.369,0.520,0.602,10.315,-31.860,-23.315
0.391,0.512,0.559,-1.648,-19.836,-24.292
0.411,0.496,0.521,-10.864,-8.789,-24.719
0.444,0.498,0.490,-18.860,0.671,-24.353
0.477,0.521,0.422,-25.696,10.498,-22.827
0.509,0.517,0.332,-29.846,19.531,-21.667
0.537,0.506,0.252,-31.189,26.123,-20.630
0.570,0.506,0.194,-28.870,29.724,-19.104
0.606,0.521,0.155,-25.940,31.555,-17.273
0.640,0.513,0.125,-23.499,32.410,-15.503
0.675,0.509,0.109,-20.996,32.715,-14.221
0.696,0.506,0.092,-19.775,32.654,-13.000
0.704,0.488,0.073,-19.775,33.752,-11.475
0.721,0.487,0.057,-21.667,34.973,-9.705
0.740,0.520,0.028,-24.536,36.682,-7.263
0.760,0.550,-0.021,-25.513,37.598,-5.310
0.793,0.569,-0.065,-24.475,36.682,-4.700
0.800,0.575,-0.079,-20.569,33.997,-4.517
0.801,0.583,-0.062,-16.357,30.151,-4.639
0.826,0.599,-0.034,-14.587,27.649,-5.005
0.837,0.607,-0.022,-15.503,27.222,-5.554
0.835,0.614,-0.023,-16.785,28.137,-6.958
0.838,0.630,-0.033,-18.311,29.785,-9.277
0.838,0.619,-0.078,-18.616,31.067,-11.902
0.845,0.584,-0.140,-19.897,31.677,-12.939
0.854,0.555,-0.204,-19.165,30.273,-11.658
0.875,0.555,-0.228,-16.174,25.757,-8.606
0.880,0.576,-0.222,-11.963,19.226,-5.737
0.860,0.617,-0.183,-6.653,12.939,-4.211
0.835,0.639,-0.145,-3.357,8.850,-4.089
0.822,0.643,-0.108,-1.038,7.446,-5.066
0.802,0.643,-0.093,-1.404,8.301,-6.897
0.809,0.661,-0.097,-4.272,10.437,-8.606
0.805,0.643,-0.149,-7.507,12.695,-10.559
0.801,0.604,-0.196,-9.216,13.855,-11.414
0.805,0.593,-0.226,-8.545,12.695,-9.827
0.806,0.609,-0.227,-4.639,10.132,-7.019
0.802,0.622,-0.200,0.549,6.836,-5.737
0.791,0.614,-0.174,5.371,4.150,-5.920
0.772,0.610,-0.136,8.728,2.136,-6.775

0.627,-0.006,-1.161,18.250,5.920,7.385
0.667,-0.052,-0.835,32.227,2.930,8.484
0.650,-0.087,-0.761,40.894,6.836,12.390
0.662,-0.076,-0.784,41.016,14.465,18.677
0.628,-0.032,-0.823,37.354,20.447,24.902
0.624,0.003,-0.808,35.645,21.667,28.259
0.625,0.052,-0.786,31.616,22.217,31.433
0.609,0.102,-0.770,25.879,23.499,32.959
0.600,0.133,-0.776,21.179,23.987,31.616
0.580,0.132,-0.772,19.348,23.376,29.724
0.573,0.109,-0.738,21.179,22.095,28.748
0.555,0.073,-0.709,22.827,21.301,29.297
0.530,0.033,-0.665,22.156,21.423,32.227
0.516,0.024,-0.587,20.447,21.545,36.316
0.501,0.039,-0.505,15.930,23.682,40.833
0.493,0.054,-0.447,10.498,28.320,45.410
0.477,0.055,-0.439,6.287,34.546,49.255
0.458,0.052,-0.508,3.540,39.856,52.917
0.444,0.077,-0.593,3.723,41.443,57.739
0.426,0.110,-0.676,8.301,38.086,61.951
0.382,0.094,-0.668,16.541,31.311,65.369
0.346,0.071,-0.612,25.818,24.597,68.542
0.336,0.080,-0.527,28.320,20.630,72.754
0.282,0.164,-0.580,28.809,25.146,77.393
0.328,0.176,-0.430,17.761,31.616,80.688
0.281,0.177,-0.406,13.123,37.842,82.581
0.037,0.176,-0.371,11.047,45.105,85.510
0.398,0.080,-0.097,9.094,55.115,90.637
0.378,0.423,-0.376,10.254,74.951,98.633
0.264,0.542,-0.521,7.324,95.642,98.999
0.246,0.455,-0.717,9.094,103.394,90.637
0.275,0.328,-0.797,22.888,99.731,83.923
0.282,0.307,-0.781,36.926,90.576,86.731
0.286,0.367,-0.720,45.593,82.214,93.262
0.297,0.426,-0.678,48.462,77.087,96.558
0.293,0.440,-0.671,46.936,75.134,96.191
0.285,0.448,-0.661,40.649,74.585,94.299
0.292,0.452,-0.668,28.748,75.439,91.614
0.271,0.452,-0.764,15.686,76.782,88.989
0.269,0.508,-0.825,9.155,74.951,87.280
0.280,0.603,-0.866,5.310,72.388,86.060
0.264,0.684,-0.930,3.723,71.228,83.130
0.247,0.659,-0.980,5.981,68.542,77.271
0.242,0.588,-1.001,12.695,63.171,72.144
0.232,0.559,-1.000,19.958,55.908,71.716
0.226,0.571,-0.973,23.621,48.035,73.730
0.217,0.615,-0.932,23.315,41.504,74.951
0.227,0.636,-0.916,18.555,38.147,74.036
0.220,0.652,-0.924,11.108,37.720,71.594
0.208,0.670,-0.946,3.906,37.598,68.787
0.200,0.672,-0.975,-1.587,36.255,64.758
0.198,0.663,-0.990,-3.967,33.386,60.791
0.180,0.630,-0.983,-2.747,29.602,57.678
0.157,0.616,-0.941,0.610,25.635,56.702
0.141,0.604,-0.895,2.563,22.156,57.068
0.119,0.580,-0.855,1.953,20.935,57.922
0.090,0.567,-0.844,-2.319,22.156,58.716
0.101,0.575,-0.846,-10.498,24.658,59.814
0.092,0.618,-0.897,-20.691,29.175,60.730
0.081,0.694,-1.007,-28.748,34.424,59.753
0.084,0.718,-1.113,-32.288,37.170,56.396
0.094,0.710,-1.199,-28.748,34.973,51.758
0.096,0.662,-1.233,-18.982,29.297,48.035
0.099,0.624,-1.213,-6.470,21.851,47.058
0.091,0.633,-1.180,3.967,14.709,48.889
0.080,0.659,-1.154,10.803,9.705,50.232
0.070,0.657,-1.146,12.756,7.080,49.438
0.071,0.632,-1.165,11.780,6.104,47.729
0.068,0.618,-1.194,9.155,5.310,46.997
0.079,0.636,-1.220,6.409,2.136,47.485
0.091,0.692,-1.250,3.723,-2.319,48.401
0.104,0.735,-1.280,2.014,-7.874,47.302
0.102,0.728,-1.294,3.052,-15.076,43.701
0.092,0.706,-1.286,5.981,-23.376,40.222
0.086,0.678,-1.257,7.812,-32.227,38.086
0.080,0.680,-1.221,8.911,-39.612,37.109
0.070,0.693,-1.188,8.484,-45.593,36.316
0.070,0.707,-1.161,6.409,-49.927,35.400
0.073,0.717,-1.153,4.150,-52.856,33.936
0.066,0.738,-1.168,2.869,-55.115,32.166
0.070,0.740,-1.182,2.380,-57.922,29.907
0.073,0.744,-1.194,2.686,-62.012,27.832
0.078,0.741,-1.191,4.028,-66.956,25.818
0.078,0.712,-1.183,4.944,-72.876,23.560
0.083,0.696,-1.166,5.188,-77.820,22.095
0.085,0.713,-1.144,4.333,-81.482,21.973
0.083,0.722,-1.128,3.723,-84.839,21.912
0.094,0.722,-1.140,4.517,-88.135,21.179
0.101,0.738,-1.121,7.080,-91.675,20.752
0.103,0.773,-1.126,8.606,-94.421,19.714
0.117,0.799,-1.138,9.277,-97.656,17.151
0.131,0.797,-1.142,9.338,-102.417,13.062
0.132,0.773,-1.133,11.719,-107.971,8.545
0.139,0.749,-1.124,14.404,-113.892,5.005
0.154,0.748,-1.109,15.198,-119.141,2.869
0.160,0.756,-1.103,13.977,-124.512,1.099
0.178,0.758,-1.108,10.986,-128.784,-1.648
0.177,0.692,-0.923,8.057,-132.324,-4.517
0.163,0.738,-1.047,4.822,-130.920,-4.700
0.199,0.814,-1.098,-1.465,-132.874,-5.066
0.216,0.769,-1.061,-0.854,-138.855,-9.277
0.181,0.721,-1.016,3.845,-145.691,-13.306
0.177,0.701,-0.945,6.714,-152.832,-14.954
0.199,0.696,-0.864,8.728,-157.959,-14.526
0.213,0.711,-0.803,8.057,-160.339,-13.550
0.225,0.731,-0.770,7.324,-160.522,-14.160
0.241,0.727,-0.765,5.920,-160.217,-16.113
0.253,0.718,-0.762,5.432,-160.522,-18.677
0.263,0.696,-0.761,5.615,-161.804,-20.386
0.267,0.673,-0.752,7.141,-163.452,-20.935
0.283,0.672,-0.725,10.010,-165.710,-19.897
0.288,0.695,-0.674,14.526,-168.396,-18.616
0.290,0.716,-0.618,20.020,-170.532,-19.348
0.297,0.724,-0.568,24.841,-171.204,-21.851
0.314,0.701,-0.514,29.358,-171.692,-24.780
0.321,0.643,-0.451,35.217,-172.729,-27.222
0.316,0.589,-0.371,42.480,-174.072,-28.198
0.321,0.561,-0.267,49.316,-174.805,-28.259
0.348,0.551,-0.163,51.331,-173.035,-27.222
0.374,0.544,-0.094,46.692,-167.603,-25.513
0.376,0.553,-0.059,39.063,-160.767,-24.048
0.368,0.570,-0.041,30.579,-154.053,-23.499
0.350,0.580,-0.019,24.597,-148.804,-23.743
0.347,0.592,0.006,20.752,-144.958,-23.804
0.347,0.599,0.029,18.188,-141.174,-24.231
0.348,0.598,0.059,16.846,-138.123,-25.208
0.351,0.598,0.099,15.747,-135.803,-26.978
0.364,0.578,0.135,13.062,-132.629,-29.480
0.370,0.551,0.173,8.301,-128.723,-31.799
0.380,0.528,0.217,3.784,-124.512,-32.593
0.388,0.507,0.267,-0.305,-119.690,-33.203
0.401,0.495,0.324,-4.211,-112.732,-33.813
0.417,0.484,0.363,-8.972,-103.455,-33.813
0.435,0.472,0.384,-12.695,-92.407,-32.959
0.449,0.458,0.381,-13.733,-79.529,-30.396
0.465,0.437,0.365,-11.047,-65.918,-26.184
0.492,0.435,0.345,-7.568,-53.406,-21.057
0.513,0.450,0.318,-3.052,-41.870,-15.320
0.530,0.453,0.291,2.441,-32.227,-10.620
0.553,0.470,0.275,6.775,-23.865,-6.958
0.578,0.494,0.248,8.423,-16.479,-4.639
0.608,0.507,0.211,5.615,-10.071,-3.662
0.633,0.519,0.167,1.404,-4.211,-3.967
0.647,0.507,0.118,-3.052,-0.122,-5.188
0.662,0.498,0.085,-6.653,2.502,-5.798
0.683,0.497,0.076,-7.874,3.662,-5.432
0.705,0.521,0.072,-7.568,4.211,-4.517
0.711,0.534,0.061,-5.920,5.127,-4.211
0.710,0.521,0.051,-4.150,6.531,-4.272

0.378,0.316,-0.720,6.409,-2.502,21.667
0.405,0.295,-0.585,11.475,-2.869,26.184
0.387,0.299,-0.549,14.771,-1.404,30.212
0.387,0.280,-0.521,10.437,6.042,33.997
0.377,0.302,-0.567,3.784,13.611,38.757
0.396,0.374,-0.583,1.709,17.273,42.114
0.390,0.395,-0.598,3.601,18.860,42.725
0.398,0.348,-0.624,6.470,19.653,43.091
0.401,0.260,-0.578,12.756,17.151,44.434
0.384,0.171,-0.511,16.602,15.076,48.706
0.371,0.145,-0.448,17.395,15.686,57.312
0.344,0.151,-0.387,18.555,18.005,67.078
0.318,0.152,-0.311,21.240,21.729,74.280
0.304,0.118,-0.294,24.292,27.466,79.895
0.273,0.079,-0.365,25.513,33.997,86.487
0.245,0.081,-0.436,29.480,36.804,94.604
0.215,0.096,-0.465,37.354,34.607,103.394
0.194,0.113,-0.459,47.424,30.518,110.596
0.138,0.147,-0.508,54.626,27.771,117.371
0.183,0.108,-0.370,56.519,28.931,123.962
0.131,0.086,-0.361,60.181,31.067,130.371
0.090,0.117,-0.359,57.739,34.241,139.771
0.077,0.180,-0.320,58.716,38.147,149.170
0.004,0.261,-0.229,60.425,43.274,155.640
0.095,0.240,-0.178,59.998,51.514,160.461
0.151,0.372,-0.324,53.589,64.148,167.297
0.045,0.454,-0.502,53.406,72.571,170.898
-0.001,0.477,-0.507,65.918,65.247,171.570
0.000,0.493,-0.413,80.933,53.040,171.814
-0.021,0.551,-0.348,85.938,47.302,173.828
-0.050,0.641,-0.342,80.872,46.387,175.354
-0.081,0.709,-0.403,69.885,48.096,173.462
-0.120,0.793,-0.481,55.420,49.744,170.349
-0.134,0.905,-0.532,40.588,48.950,167.236
-0.141,1.035,-0.559,28.809,45.837,162.354
-0.165,1.141,-0.576,23.621,41.809,154.602
-0.210,1.165,-0.574,23.560,37.109,144.470
-0.241,1.207,-0.575,25.024,33.752,135.498
-0.255,1.272,-0.604,24.536,33.875,130.005
-0.277,1.341,-0.674,24.414,37.109,126.892
-0.295,1.421,-0.742,26.245,38.940,123.962
-0.302,1.476,-0.784,31.372,37.598,120.605
-0.287,1.549,-0.791,37.964,32.471,115.906
-0.286,1.639,-0.782,43.579,24.231,108.704
-0.283,1.667,-0.726,47.913,13.855,96.802
-0.290,1.617,-0.639,49.133,4.028,82.336
-0.291,1.566,-0.566,44.739,-1.648,70.557
-0.281,1.538,-0.529,37.537,-3.113,62.683
-0.265,1.524,-0.504,30.884,-1.770,56.519
-0.254,1.516,-0.513,26.001,1.770,51.208
-0.233,1.521,-0.538,24.353,5.859,46.448
-0.234,1.526,-0.581,25.635,8.423,41.443
-0.227,1.542,-0.587,28.931,7.385,35.828
-0.207,1.514,-0.573,30.823,4.517,28.687
-0.199,1.447,-0.572,29.663,2.014,20.447
-0.187,1.369,-0.570,24.109,0.244,14.038
-0.179,1.339,-0.563,16.968,-1.526,9.277
-0.177,1.312,-0.547,9.216,-2.869,4.944
-0.165,1.270,-0.546,2.747,-3.113,0.549
-0.162,1.235,-0.560,-2.319,-3.174,-3.479
-0.160,1.216,-0.577,-6.165,-3.845,-6.348
-0.154,1.194,-0.579,-7.874,-4.944,-9.216
-0.157,1.157,-0.571,-6.409,-6.104,-12.390
-0.167,1.097,-0.556,-2.686,-7.141,-14.526
-0.163,1.045,-0.533,1.465,-7.751,-15.076
-0.167,1.021,-0.513,4.456,-7.996,-14.282
-0.169,0.994,-0.500,3.601,-8.057,-14.160
-0.156,0.973,-0.502,0.427,-7.507,-13.977
-0.152,1.000,-0.521,-3.418,-7.263,-14.282
-0.155,1.000,-0.560,-5.676,-8.301,-16.907
-0.155,0.990,-0.600,-5.737,-10.376,-20.508
-0.154,0.966,-0.618,-4.333,-13.672,-23.315
-0.161,0.960,-0.628,-3.174,-17.212,-24.292
-0.157,0.979,-0.633,-2.563,-19.531,-24.353
-0.156,1.003,-0.658,-2.747,-20.081,-24.719
-0.163,1.008,-0.706,-2.991,-20.203,-26.184
-0.164,1.039,-0.777,-2.869,-20.508,-27.710
-0.171,1.107,-0.863,-2.197,-22.461,-28.870
-0.181,1.139,-0.945,1.160,-26.917,-31.799
-0.183,1.177,-1.014,7.202,-33.264,-35.461
-0.190,1.203,-1.056,13.123,-41.260,-39.001
-0.197,1.198,-1.061,18.311,-50.903,-42.358
-0.190,1.183,-1.021,20.996,-60.730,-46.021
-0.187,1.208,-0.982,20.813,-69.458,-49.744
-0.191,1.255,-0.993,17.151,-75.500,-54.260
-0.180,1.271,-1.042,12.146,-78.735,-59.631
-0.172,1.292,-1.118,7.263,-81.604,-63.965
-0.170,1.333,-1.193,5.859,-86.975,-67.383
-0.168,1.348,-1.231,7.202,-95.032,-71.289
-0.169,1.331,-1.215,12.695,-105.469,-75.928
-0.167,1.309,-1.160,20.630,-116.821,-79.956
-0.169,1.295,-1.090,28.748,-127.136,-83.923
-0.183,1.293,-1.044,34.241,-134.888,-87.830
-0.177,1.276,-0.992,36.438,-140.198,-91.553
-0.164,1.271,-0.959,36.133,-144.226,-94.727
-0.156,1.264,-0.923,35.400,-148.010,-97.290
-0.146,1.243,-0.887,37.964,-153.137,-100.464
-0.156,1.226,-0.836,43.762,-159.241,-104.492
-0.152,1.219,-0.776,49.622,-165.466,-108.337
-0.141,1.175,-0.712,55.664,-170.166,-112.305
-0.144,1.115,-0.656,61.951,-173.828,-115.417
-0.144,1.065,-0.585,69.031,-177.490,-117.859
-0.145,0.985,-0.496,78.064,-181.213,-120.361
-0.147,0.911,-0.391,87.524,-184.570,-122.559
-0.165,0.817,-0.290,95.825,-186.768,-124.390
-0.166,0.727,-0.192,100.647,-187.561,-125.366
-0.143,0.656,-0.095,100.342,-187.866,-125.977
-0.108,0.604,-0.018,95.215,-186.890,-126.770
-0.080,0.558,0.043,86.914,-185.669,-128.418
-0.073,0.469,0.098,76.355,-184.753,-130.676
-0.064,0.375,0.170,65.186,-184.814,-132.202
-0.040,0.331,0.263,52.307,-183.105,-130.249
-0.013,0.306,0.340,39.612,-177.856,-126.038
0.008,0.266,0.402,31.128,-170.288,-120.911
0.029,0.209,0.452,27.893,-162.476,-114.746
0.055,0.194,0.495,27.771,-153.625,-105.835
0.088,0.198,0.534,28.870,-144.226,-95.398
0.112,0.182,0.557,30.701,-134.155,-85.510
0.128,0.165,0.583,30.518,-124.878,-76.965
0.147,0.168,0.617,28.076,-116.211,-68.359
0.175,0.192,0.669,24.841,-108.459,-61.035
0.189,0.210,0.708,20.813,-100.281,-55.603
0.203,0.213,0.738,18.311,-91.003,-50.842
0.222,0.229,0.748,16.113,-80.688,-45.959
0.231,0.239,0.732,12.939,-70.496,-40.649
0.246,0.265,0.721,10.254,-61.523,-35.095
0.268,0.309,0.721,7.446,-54.321,-30.518
0.300,0.344,0.732,3.784,-47.302,-28.503
0.331,0.352,0.724,-0.977,-39.612,-28.198
0.359,0.333,0.696,-6.958,-31.128,-28.076
0.377,0.310,0.652,-12.634,-23.376,-26.550
0.431,0.319,0.634,-17.151,-17.090,-22.949
0.465,0.345,0.612,-21.301,-11.536,-18.494
0.475,0.390,0.573,-23.621,-6.287,-14.343
0.481,0.424,0.522,-22.949,-1.587,-11.230
0.496,0.443,0.475,-19.531,2.441,-8.179
0.510,0.438,0.439,-13.977,4.761,-5.676
0.529,0.436,0.426,-8.484,4.944,-3.479
0.556,0.445,0.437,-5.371,4.700,-0.916
0.566,0.472,0.451,-6.348,6.104,2.075
0.575,0.510,0.449,-9.033,9.460,4.150
0.593,0.551,0.428,-13.123,14.954,6.042
0.617,0.579,0.379,-16.907,20.081,7.202
0.635,0.608,0.318,-19.775,24.231,7.446
0.650,0.634,0.253,-20.142,25.635,7.141
0.659,0.647,0.202,-18.921,24.597,6.470
0.659,0.656,0.172,-16.541,20.935,5.432
0.661,0.668,0.170,-13.977,16.235,4.456
0.672,0.681,0.180,-12.207,12.207,3.845

0.551,0.185,-0.618,28.259,30.334,7.080
0.516,0.102,-0.559,32.471,27.649,12.024
0.478,0.090,-0.467,31.250,27.405,20.081
0.500,0.132,-0.399,26.917,34.119,29.480
0.490,0.117,-0.402,19.897,41.016,36.255
0.490,0.070,-0.485,13.062,47.424,41.138
0.452,0.101,-0.505,11.475,49.744,48.401
0.463,0.152,-0.495,13.977,48.767,56.335
0.466,0.105,-0.492,18.066,47.729,61.523
0.453,-0.006,-0.446,20.142,46.387,66.711
0.437,-0.052,-0.393,16.357,45.593,75.256
0.401,-0.109,-0.422,6.958,46.387,84.961
0.352,-0.106,-0.440,-0.488,46.326,96.375
0.300,-0.039,-0.418,-2.625,43.823,108.887
0.277,0.007,-0.405,0.488,41.260,119.263
0.269,0.024,-0.400,7.202,38.696,127.197
0.268,0.001,-0.383,12.756,34.668,134.277
0.263,0.015,-0.363,16.296,30.273,142.212
0.276,-0.012,-0.048,16.357,28.137,151.367
0.186,0.090,-0.354,15.381,30.701,161.255
0.158,0.219,-0.327,13.794,28.870,167.358
0.090,0.366,-0.362,12.878,30.823,171.387
0.076,0.510,-0.380,9.338,34.241,172.058
0.043,0.594,-0.394,5.066,38.330,169.373
-0.008,0.777,-0.390,3.967,41.199,164.673
0.058,0.683,-0.323,-0.671,45.166,158.691
0.045,0.699,-0.417,-7.935,57.678,155.518
-0.042,0.790,-0.429,-4.517,67.566,156.555
-0.075,0.798,-0.424,1.038,71.472,156.433
-0.050,0.760,-0.505,3.418,75.378,156.860
-0.039,0.851,-0.517,2.075,78.735,160.522
-0.050,0.978,-0.565,-1.709,81.787,162.354
-0.074,1.042,-0.709,-3.357,83.374,157.898
-0.079,1.090,-0.783,4.089,77.148,150.940
-0.068,1.085,-0.732,14.404,65.552,143.066
-0.079,1.058,-0.675,18.799,57.678,135.376
-0.103,1.046,-0.654,17.883,53.467,128.662
-0.114,1.008,-0.645,15.442,50.354,122.620
-0.132,0.982,-0.630,12.146,47.241,118.164
-0.141,0.982,-0.597,7.446,44.373,116.577
-0.143,0.992,-0.567,3.723,42.053,116.211
-0.148,1.015,-0.540,1.221,39.795,115.295
-0.181,1.053,-0.525,-1.221,37.720,111.816
-0.215,1.074,-0.528,-5.615,36.316,106.079
-0.238,1.092,-0.543,-11.230,36.133,100.342
-0.257,1.130,-0.579,-15.747,37.781,96.008
-0.272,1.172,-0.634,-17.761,39.795,92.712
-0.279,1.201,-0.691,-18.555,40.405,88.257
-0.290,1.206,-0.725,-16.846,38.818,82.886
-0.305,1.196,-0.745,-15.930,35.217,77.393
-0.299,1.193,-0.763,-16.907,31.311,72.205
-0.291,1.209,-0.792,-19.348,27.710,67.749
-0.296,1.245,-0.829,-22.583,23.987,63.721
-0.305,1.261,-0.851,-25.146,19.775,58.533
-0.305,1.250,-0.855,-26.611,15.869,52.734
-0.305,1.243,-0.855,-27.283,12.451,47.485
-0.328,1.285,-0.866,-27.161,9.888,42.236
-0.344,1.331,-0.881,-26.123,7.812,36.621
-0.339,1.317,-0.894,-22.705,5.554,29.236
-0.341,1.258,-0.900,-15.564,3.113,22.034
-0.341,1.185,-0.889,-8.301,1.038,17.517
-0.328,1.160,-0.870,-3.479,-0.488,15.808
-0.310,1.171,-0.866,-2.686,-0.549,14.648
-0.295,1.167,-0.893,-3.174,0.244,12.207
-0.290,1.149,-0.950,-4.272,0.610,7.812
-0.276,1.119,-1.009,-6.592,-0.977,3.540
-0.267,1.085,-1.043,-8.606,-5.005,-0.732
-0.265,1.062,-1.054,-10.315,-11.414,-4.272
-0.260,1.040,-1.055,-12.573,-19.226,-7.202
-0.256,1.021,-1.062,-14.893,-26.978,-10.620
-0.252,0.992,-1.085,-17.334,-33.813,-14.282
-0.261,0.956,-1.098,-19.287,-40.527,-17.517
-0.271,0.936,-1.109,-20.874,-47.729,-19.653
-0.269,0.930,-1.120,-24.231,-54.932,-21.240
-0.264,0.924,-1.133,-28.442,-61.340,-22.644
-0.270,0.907,-1.152,-30.579,-66.772,-24.658
-0.271,0.891,-1.189,-32.349,-71.777,-26.672
-0.261,0.897,-1.226,-35.522,-77.209,-27.710
-0.260,0.909,-1.262,-36.438,-82.581,-29.053
-0.253,0.926,-1.291,-32.715,-87.952,-31.494
-0.247,0.917,-1.305,-25.146,-93.506,-33.875
-0.247,0.893,-1.293,-13.672,-99.548,-36.133
-0.246,0.865,-1.244,-1.831,-105.591,-36.987
-0.256,0.850,-1.228,7.141,-110.718,-36.926
-0.247,0.864,-1.183,15.564,-117.676,-35.889
-0.223,0.859,-1.122,21.362,-124.390,-36.255
-0.212,0.861,-1.068,24.536,-129.150,-37.598
-0.207,0.863,-1.025,24.231,-132.812,-39.246
-0.199,0.864,-1.002,19.958,-136.414,-40.771
-0.179,0.862,-0.966,14.282,-140.991,-42.236
-0.175,0.895,-0.949,9.705,-145.508,-43.945
-0.176,0.930,-0.948,7.446,-150.208,-46.753
-0.146,0.947,-0.927,5.920,-155.457,-50.232
-0.127,0.939,-0.896,6.531,-159.973,-53.894
-0.119,0.913,-0.863,9.766,-163.513,-57.007
-0.115,0.879,-0.828,13.306,-166.809,-59.082
-0.104,0.849,-0.778,16.846,-170.715,-60.120
-0.091,0.838,-0.725,20.447,-174.133,-59.631
-0.087,0.825,-0.676,23.926,-176.819,-59.387
-0.067,0.795,-0.623,26.489,-178.894,-60.120
-0.031,0.781,-0.575,26.062,-179.749,-60.913
0.005,0.782,-0.542,23.865,-178.772,-61.462
0.030,0.776,-0.525,21.606,-176.819,-62.378
0.052,0.755,-0.523,20.630,-175.049,-63.904
0.083,0.721,-0.514,19.714,-174.622,-65.674
0.110,0.694,-0.490,19.531,-175.720,-67.139
0.117,0.666,-0.460,21.118,-177.063,-68.359
0.120,0.648,-0.429,23.437,-178.284,-69.153
0.137,0.635,-0.386,25.452,-178.833,-69.336
0.172,0.609,-0.325,27.954,-178.345,-68.726
0.204,0.600,-0.271,32.227,-176.758,-67.200
0.233,0.579,-0.233,36.255,-174.927,-65.186
0.248,0.564,-0.196,39.917,-172.546,-62.988
0.262,0.552,-0.142,43.213,-169.495,-61.035
0.292,0.552,-0.104,43.274,-165.649,-58.655
0.303,0.538,-0.091,41.077,-160.645,-56.213
0.316,0.543,-0.080,39.001,-155.273,-54.321
0.340,0.559,-0.060,36.438,-149.902,-52.856
0.361,0.568,-0.036,34.851,-145.447,-51.758
0.361,0.555,-0.013,36.072,-141.663,-51.453
0.355,0.522,0.022,39.978,-139.465,-51.147
0.360,0.479,0.076,44.617,-137.695,-49.744
0.368,0.448,0.138,47.974,-134.888,-46.875
0.389,0.431,0.210,50.781,-130.615,-43.274
0.418,0.419,0.280,52.307,-124.817,-39.673
0.425,0.409,0.316,51.697,-117.126,-35.767
0.434,0.416,0.331,50.232,-108.643,-31.555
0.434,0.420,0.340,47.852,-100.281,-28.503
0.427,0.410,0.359,47.119,-92.896,-26.367
0.419,0.421,0.375,46.326,-86.670,-23.804
0.436,0.431,0.420,43.701,-81.421,-21.912
0.438,0.445,0.464,38.818,-75.745,-20.142
0.427,0.462,0.505,33.875,-68.848,-19.043
0.429,0.474,0.528,28.137,-60.364,-18.860
0.453,0.483,0.534,20.813,-50.781,-18.616
0.474,0.495,0.527,13.367,-41.138,-18.372
0.484,0.486,0.508,7.202,-31.921,-18.127
0.490,0.482,0.492,3.418,-23.621,-17.700
0.500,0.473,0.470,0.610,-16.602,-16.602
0.530,0.444,0.454,-2.197,-10.742,-14.709
0.561,0.445,0.445,-5.432,-5.737,-11.780
0.579,0.485,0.430,-9.827,0.183,-8.057
0.593,0.535,0.388,-16.357,7.446,-5.554
0.619,0.572,0.326,-21.851,15.259,-4.761
0.639,0.579,0.244,-24.292,21.423,-5.127
0.649,0.562,0.174,-22.827,24.963,-5.432
0.667,0.550,0.122,-18.921,24.841,-5.127
0.698,0.559,0.097,-14.893,21.912,-4.639
0.718,0.576,0.087,-11.047,18.250,-4.700

0.571,-0.916,-0.557,24.780,48.706,-8.240
0.577,-0.851,-0.200,24.841,36.743,-2.258
0.526,-0.792,-0.187,8.301,41.748,1.160
0.524,-0.760,-0.270,-16.663,57.373,2.380
0.500,-0.690,-0.444,-32.593,68.970,4.700
0.509,-0.605,-0.497,-30.212,70.007,7.141
0.494,-0.579,-0.416,-16.602,67.505,8.484
0.478,-0.609,-0.310,-2.014,68.848,9.705
0.454,-0.630,-0.282,8.179,75.500,13.062
0.440,-0.637,-0.295,14.099,84.106,18.433
0.401,-0.623,-0.273,19.226,90.942,25.024
0.359,-0.546,-0.198,22.339,97.229,32.288
0.335,-0.460,-0.123,21.301,105.530,38.025
0.319,-0.419,-0.092,16.968,116.272,40.649
0.302,-0.393,-0.144,12.390,127.563,41.931
0.275,-0.303,-0.234,10.010,136.292,44.800
0.257,-0.161,-0.279,12.451,139.771,46.753
0.222,-0.077,-0.300,14.465,141.235,42.847
0.175,-0.047,-0.300,17.883,142.090,33.691
0.148,-0.053,-0.300,22.461,143.921,24.292
0.112,-0.090,-0.323,25.696,148.315,16.357
0.080,-0.121,-0.363,26.550,155.212,11.536
0.072,-0.168,-0.407,23.254,163.269,9.277
-0.011,-0.127,-0.567,20.325,174.316,8.423
0.005,-0.155,-0.531,8.423,184.998,7.996
-0.028,-0.183,-0.642,-4.456,192.627,4.761
-0.053,-0.231,-0.721,-11.169,197.571,1.282
-0.072,-0.274,-0.771,-13.489,200.378,0.793
-0.093,-0.264,-0.817,-11.047,202.759,4.028
-0.091,-0.213,-0.867,-5.859,204.651,7.874
-0.090,-0.131,-0.961,-0.854,206.665,9.888
-0.089,-0.094,-1.081,3.052,206.970,7.446
-0.084,-0.110,-1.189,8.423,203.186,1.099
-0.083,-0.159,-1.246,16.602,194.336,-5.920
-0.074,-0.233,-1.247,25.574,181.824,-11.353
-0.095,-0.289,-1.237,32.104,169.006,-12.817
-0.096,-0.321,-1.215,35.706,157.532,-10.620
-0.098,-0.336,-1.188,34.058,147.461,-6.836
-0.106,-0.356,-1.169,28.870,139.038,-2.747
-0.111,-0.347,-1.163,21.606,132.202,2.014
-0.122,-0.300,-1.158,12.878,127.380,6.226
-0.140,-0.245,-1.147,5.005,124.268,8.911
-0.166,-0.247,-1.172,0.000,122.131,8.667
-0.193,-0.229,-1.169,-2.075,118.225,9.644
-0.238,-0.170,-1.186,-1.160,112.915,12.085
-0.257,-0.149,-1.168,2.319,107.117,9.888
-0.270,-0.143,-1.185,2.991,103.577,5.554
-0.285,-0.146,-1.230,1.099,101.624,1.831
-0.307,-0.156,-1.267,0.183,99.365,-1.282
-0.320,-0.182,-1.285,0.732,95.276,-3.723
-0.338,-0.220,-1.278,2.197,90.393,-5.005
-0.363,-0.244,-1.270,3.479,86.121,-5.249
-0.379,-0.228,-1.259,2.686,82.703,-4.578
-0.378,-0.187,-1.293,-0.732,81.116,-3.784
-0.368,-0.174,-1.384,-6.287,79.834,-5.371
-0.357,-0.180,-1.475,-9.949,77.271,-9.155
-0.365,-0.233,-1.543,-9.338,71.106,-13.977
-0.363,-0.276,-1.577,-4.761,62.012,-17.944
-0.350,-0.322,-1.568,-0.854,51.880,-19.897
-0.355,-0.356,-1.550,1.282,42.725,-20.386
-0.361,-0.404,-1.544,0.549,35.950,-19.958
-0.359,-0.440,-1.558,-0.732,31.189,-18.982
-0.344,-0.472,-1.574,-2.380,26.550,-17.456
-0.338,-0.510,-1.585,-3.967,21.912,-15.442
-0.326,-0.545,-1.593,-4.456,17.883,-12.756
-0.315,-0.569,-1.599,-3.784,13.672,-8.911
-0.316,-0.570,-1.617,-2.563,8.972,-4.456
-0.319,-0.575,-1.624,-1.526,3.052,-0.183
-0.314,-0.585,-1.621,-0.916,-3.662,3.418
-0.314,-0.602,-1.631,0.732,-11.108,6.470
-0.319,-0.612,-1.620,2.380,-19.592,9.094
-0.331,-0.647,-1.588,3.052,-28.809,12.146
-0.342,-0.680,-1.535,3.357,-37.170,15.991
-0.338,-0.690,-1.494,2.625,-42.786,21.484
-0.330,-0.684,-1.474,2.258,-47.729,26.794
-0.318,-0.682,-1.467,2.014,-52.124,31.250
-0.309,-0.690,-1.482,3.052,-56.213,35.767
-0.288,-0.703,-1.486,5.554,-60.669,41.077
-0.296,-0.717,-1.477,9.277,-66.528,47.546
-0.295,-0.713,-1.450,13.977,-73.059,54.077
-0.279,-0.697,-1.415,16.785,-79.773,60.303
-0.270,-0.693,-1.391,17.090,-85.815,65.186
-0.260,-0.694,-1.369,17.517,-91.125,69.824
-0.263,-0.695,-1.351,17.700,-96.008,74.829
-0.251,-0.678,-1.319,18.921,-100.586,80.627
-0.234,-0.651,-1.288,19.836,-104.919,86.731
-0.230,-0.623,-1.260,20.630,-108.948,92.651
-0.219,-0.570,-1.238,21.790,-112.305,98.022
-0.208,-0.532,-1.234,22.949,-115.356,101.685
-0.195,-0.500,-1.225,23.132,-118.591,104.065
-0.187,-0.483,-1.209,23.499,-121.887,105.713
-0.185,-0.469,-1.183,24.658,-125.549,107.056
-0.163,-0.448,-1.148,25.696,-128.296,108.521
-0.150,-0.436,-1.133,25.330,-129.944,110.718
-0.139,-0.411,-1.125,24.475,-130.920,112.976
-0.120,-0.380,-1.123,24.231,-131.104,115.295
-0.107,-0.336,-1.107,24.109,-131.714,117.676
-0.100,-0.292,-1.089,24.658,-132.385,120.056
-0.072,-0.234,-1.064,26.367,-133.179,121.521
-0.058,-0.179,-1.024,29.541,-133.972,121.765
-0.046,-0.143,-0.998,32.104,-134.277,120.300
-0.017,-0.100,-0.957,34.668,-133.850,117.737
0.006,-0.080,-0.924,36.377,-132.874,114.685
0.019,-0.055,-0.888,38.391,-132.202,111.816
0.039,-0.023,-0.844,39.856,-132.080,109.497
0.069,-0.017,-0.813,39.917,-131.287,107.056
0.102,-0.010,-0.796,38.208,-129.028,103.943
0.136,0.005,-0.784,36.194,-125.427,101.685
0.163,0.011,-0.783,34.180,-122.009,100.037
0.195,0.048,-0.762,35.278,-120.178,98.450
0.229,0.092,-0.733,37.476,-119.629,96.130
0.246,0.122,-0.713,38.757,-119.690,91.919
0.267,0.120,-0.677,38.452,-119.751,86.365
0.290,0.095,-0.652,36.194,-118.896,81.970
0.303,0.088,-0.626,33.447,-117.615,80.200
0.326,0.088,-0.602,29.358,-116.272,79.834
0.351,0.105,-0.585,24.109,-114.319,79.956
0.367,0.128,-0.574,19.043,-112.061,79.773
0.381,0.173,-0.560,15.564,-109.802,79.163
0.383,0.234,-0.550,12.451,-108.826,77.332
0.387,0.293,-0.529,10.376,-108.887,73.425
0.406,0.331,-0.490,9.644,-108.704,67.200
0.419,0.351,-0.458,10.620,-107.300,59.937
0.414,0.359,-0.431,12.634,-104.370,52.856
0.433,0.357,-0.397,15.381,-101.013,46.814
0.452,0.319,-0.394,17.761,-96.863,42.114
0.455,0.287,-0.381,20.996,-92.712,39.734
0.456,0.290,-0.345,23.865,-89.783,39.490
0.454,0.300,-0.308,23.987,-87.097,39.673
0.456,0.311,-0.274,20.447,-82.947,38.696
0.464,0.327,-0.240,15.320,-76.477,36.316
0.471,0.352,-0.228,8.850,-68.726,33.752
0.485,0.369,-0.223,2.136,-61.157,30.701
0.501,0.386,-0.228,-1.831,-53.772,28.076
0.512,0.411,-0.260,-4.150,-46.509,26.184
0.520,0.415,-0.299,-4.211,-39.307,24.353
0.529,0.416,-0.325,-0.916,-33.264,22.217
0.550,0.413,-0.334,4.272,-28.870,19.714
0.564,0.412,-0.325,8.911,-25.452,17.151
0.573,0.422,-0.307,13.428,-22.766,14.099
0.575,0.414,-0.302,15.259,-19.897,9.644
0.592,0.363,-0.312,13.611,-15.991,4.883
0.614,0.312,-0.342,9.705,-10.864,1.709
0.638,0.284,-0.368,5.615,-5.920,1.282
0.642,0.282,-0.391,1.526,-2.563,2.869
0.648,0.325,-0.411,-0.244,-0.854,4.578
0.661,0.385,-0.420,-0.305,-1.038,4.272
0.672,0.436,-0.434,-0.183,-1.282,1.038
0.693,0.445,-0.450,-0.854,-1.160,-4.333

0.386,-0.702,-0.342,-37.170,40.161,-7.385
0.419,-0.662,-0.348,-38.574,51.453,-0.793
0.387,-0.542,-0.372,-36.316,62.500,3.967
0.403,-0.466,-0.454,-28.503,73.730,5.005
0.374,-0.383,-0.579,-14.099,81.360,4.028
0.388,-0.321,-0.686,4.272,83.008,0.122
0.376,-0.368,-0.658,25.696,78.735,-5.493
0.368,-0.448,-0.568,41.687,72.998,-11.414
0.364,-0.499,-0.543,44.067,71.167,-14.893
0.370,-0.515,-0.591,36.499,71.777,-14.893
0.360,-0.515,-0.633,28.564,70.618,-13.245
0.330,-0.499,-0.606,23.254,66.467,-11.047
0.298,-0.456,-0.531,20.630,63.660,-8.118
0.288,-0.423,-0.462,19.226,64.636,-6.714
0.272,-0.417,-0.420,18.921,68.726,-6.409
0.248,-0.437,-0.358,22.461,73.914,-5.859
0.211,-0.431,-0.256,30.212,81.055,-3.601
0.194,-0.402,-0.210,37.292,90.576,0.305
0.164,-0.362,-0.206,43.213,102.173,4.395
0.120,-0.324,-0.212,48.401,113.281,8.240
0.090,-0.283,-0.234,52.063,122.437,10.925
0.043,-0.240,-0.282,54.016,129.822,12.024
0.042,-0.273,-0.267,54.688,134.888,10.986
0.001,-0.270,-0.293,52.185,140.259,11.536
-0.017,-0.266,-0.279,46.631,148.560,14.160
-0.013,-0.198,-0.294,47.119,156.799,15.320
-0.055,-0.185,-0.370,38.086,168.091,15.198
-0.050,-0.219,-0.475,27.649,179.077,12.268
-0.081,-0.285,-0.586,23.682,186.707,10.071
-0.115,-0.290,-0.711,26.489,191.895,12.939
-0.111,-0.204,-0.824,36.438,192.810,17.578
-0.114,-0.121,-0.893,48.645,190.857,19.653
-0.134,-0.060,-0.937,61.218,187.805,17.517
-0.157,-0.059,-0.985,72.754,184.570,11.780
-0.193,-0.120,-1.035,79.895,181.335,5.249
-0.208,-0.174,-1.067,85.022,177.246,1.221
-0.215,-0.227,-1.121,86.121,172.241,0.549
-0.212,-0.244,-1.169,83.618,166.138,2.991
-0.222,-0.251,-1.215,77.454,158.997,5.981
-0.237,-0.245,-1.265,67.200,151.367,8.118
-0.255,-0.224,-1.301,55.420,143.494,9.460
-0.276,-0.208,-1.333,41.260,135.864,9.705
-0.310,-0.230,-1.411,27.466,128.479,9.338
-0.332,-0.195,-1.458,20.874,117.737,12.878
-0.332,-0.131,-1.480,20.020,105.713,16.541
-0.323,-0.092,-1.506,18.616,96.863,15.320
-0.324,-0.115,-1.549,13.000,90.698,11.719
-0.377,-0.175,-1.606,8.728,85.144,8.362
-0.372,-0.210,-1.614,11.230,78.491,5.920
-0.353,-0.217,-1.633,15.991,71.167,5.493
-0.370,-0.200,-1.651,21.851,63.843,7.385
-0.384,-0.167,-1.672,26.306,57.739,9.216
-0.390,-0.153,-1.708,28.687,51.453,8.972
-0.390,-0.152,-1.739,30.151,44.189,6.714
-0.384,-0.171,-1.763,30.273,35.767,2.869
-0.363,-0.191,-1.778,30.334,27.649,-1.160
-0.378,-0.229,-1.798,30.579,19.470,-3.601
-0.389,-0.264,-1.789,31.738,10.742,-4.517
-0.385,-0.328,-1.780,33.813,2.563,-4.333
-0.382,-0.367,-1.785,35.278,-3.845,-1.770
-0.375,-0.393,-1.784,36.194,-9.705,3.235
-0.376,-0.410,-1.783,36.438,-17.029,9.399
