aX,aY,aZ,gX,gY,gZ
0.214,0.420,-0.874,2.930,-2.686,-8.606
0.253,0.434,-0.812,-1.831,-4.028,-5.249
0.247,0.452,-0.816,-4.089,-4.150,-3.296
0.189,0.352,-0.914,-10.803,-2.563,-1.526
0.208,0.306,-0.998,-12.390,-5.066,2.686
0.236,0.386,-0.987,-9.705,-11.414,9.338
0.221,0.434,-0.946,-7.690,-17.456,13.367
0.216,0.473,-0.900,-4.517,-20.691,13.550
0.217,0.464,-0.855,-2.075,-20.203,12.268
0.227,0.387,-0.783,-2.014,-17.334,12.329
0.269,0.309,-0.754,-4.517,-12.573,15.991
0.304,0.273,-0.774,-11.108,-6.836,23.315
0.305,0.306,-0.944,-19.470,-3.601,34.180
0.295,0.497,-1.042,-20.935,-6.226,44.678
0.242,0.641,-1.008,-13.062,-11.597,47.302
0.198,0.646,-0.944,-1.099,-12.634,39.001
0.229,0.545,-0.957,11.414,-9.216,26.001
0.292,0.403,-0.936,22.461,-7.629,16.418
0.333,0.315,-0.901,31.067,-10.132,15.625
0.346,0.291,-0.861,28.870,-16.235,23.926
0.241,0.387,-0.927,18.433,-24.841,35.522
0.253,0.486,-0.808,-11.292,-38.208,45.166
0.047,0.375,-0.708,-43.945,-49.194,48.706
0.073,0.379,-0.560,-79.590,-53.345,54.688
0.513,0.790,-0.626,-105.164,-43.213,61.523
0.421,0.585,-0.803,-148.987,-19.958,45.288
0.205,0.224,-0.900,-152.954,5.554,22.827
0.117,0.165,-0.991,-97.778,25.696,14.404
0.125,0.069,-1.157,-43.701,43.457,16.785
0.239,0.098,-1.284,0.000,53.589,26.123
0.341,0.182,-1.339,28.076,54.932,36.560
0.389,0.243,-1.299,48.645,49.438,45.837
0.394,0.240,-1.223,62.744,39.368,57.373
0.383,0.205,-1.168,66.040,26.489,74.097
0.364,0.228,-1.099,63.660,13.062,93.933
0.322,0.370,-1.003,61.829,0.977,112.000
0.265,0.586,-0.892,58.838,-7.874,121.460
0.225,0.729,-0.805,49.805,-12.390,120.483
0.176,0.762,-0.764,36.133,-11.841,112.427
0.137,0.726,-0.777,25.940,-7.568,100.159
0.118,0.683,-0.833,19.409,-1.404,87.402
0.124,0.658,-0.906,18.188,5.127,76.721
0.138,0.651,-0.981,21.729,10.132,69.275
0.153,0.642,-1.048,31.555,12.939,64.697
0.158,0.616,-1.145,47.485,13.733,61.707
0.161,0.616,-1.219,69.885,12.085,59.753
0.169,0.690,-1.191,95.703,7.996,59.082
0.183,0.795,-1.065,116.882,2.319,58.411
0.171,0.916,-0.935,127.869,-2.747,56.580
0.132,1.006,-0.858,125.488,-7.141,51.941
0.088,1.090,-0.858,110.962,-11.658,44.617
0.060,1.149,-0.926,93.445,-16.968,34.790
0.038,1.147,-1.035,78.857,-24.170,23.254
0.022,1.099,-1.146,68.909,-34.119,13.245
0.000,1.073,-1.229,67.261,-46.692,8.118
-0.030,1.074,-1.268,78.247,-61.096,7.507
-0.084,1.099,-1.247,97.107,-76.111,9.644
-0.160,1.162,-1.137,120.178,-89.417,12.024
-0.240,1.276,-0.980,143.860,-98.450,11.353
-0.329,1.484,-0.518,160.217,-101.624,3.845
-0.337,1.516,-0.321,141.418,-95.581,-9.705
-0.395,1.613,-0.348,113.831,-81.360,-28.198
-0.423,1.432,-0.464,85.144,-66.956,-48.828
-0.393,1.347,-0.569,79.041,-57.312,-71.289
-0.404,1.298,-0.536,87.158,-54.871,-91.187
-0.444,1.205,-0.438,90.881,-56.824,-105.774
-0.471,1.173,-0.368,92.224,-60.059,-116.638
-0.463,1.123,-0.284,92.896,-62.683,-127.991
-0.426,1.055,-0.154,96.252,-63.049,-140.991
-0.377,0.968,-0.009,101.685,-58.472,-153.870
-0.341,0.868,0.128,103.516,-48.523,-162.048
-0.329,0.793,0.234,100.037,-34.119,-165.222
-0.341,0.759,0.302,93.384,-17.639,-164.795
-0.377,0.730,0.320,84.534,-1.343,-163.696
-0.383,0.569,0.421,73.853,13.184,-162.659
-0.323,0.461,0.624,62.927,36.194,-151.672
-0.415,0.696,0.306,69.885,75.134,-142.517
-0.472,0.692,0.403,76.111,96.069,-154.419
-0.536,0.640,0.334,60.669,121.643,-163.757
-0.605,0.677,0.134,56.091,144.226,-173.401
-0.626,0.546,0.114,41.809,151.367,-184.814
-0.630,0.474,0.117,28.625,156.006,-191.895
-0.622,0.388,0.164,20.020,160.889,-200.378
-0.634,0.292,0.219,4.456,168.701,-207.214
-0.641,0.199,0.194,-14.648,180.237,-211.182
-0.614,0.079,0.107,-34.546,192.993,-211.914
-0.625,0.007,0.013,-52.368,202.881,-208.923
-0.662,-0.036,-0.069,-64.819,209.473,-205.933
-0.669,-0.102,-0.140,-71.960,213.684,-204.956
-0.651,-0.187,-0.194,-75.989,216.187,-204.773
-0.621,-0.308,-0.229,-77.515,218.201,-203.552
-0.565,-0.468,-0.251,-77.087,220.337,-198.975
-0.512,-0.599,-0.248,-75.867,224.548,-187.378
-0.483,-0.687,-0.265,-75.867,231.812,-169.678
-0.484,-0.729,-0.333,-78.064,241.272,-148.132
-0.502,-0.748,-0.454,-81.482,251.465,-126.404
-0.515,-0.755,-0.579,-83.557,261.108,-108.093
-0.520,-0.753,-0.689,-83.374,268.250,-93.689
-0.508,-0.767,-0.868,-81.909,273.376,-80.872
-0.477,-0.761,-1.062,-81.665,272.766,-69.031
-0.476,-0.755,-1.308,-80.078,264.099,-56.763
-0.459,-0.886,-1.319,-82.214,249.390,-44.922
-0.383,-0.823,-1.346,-78.064,239.380,-35.706
-0.378,-0.872,-1.461,-72.083,231.201,-23.193
-0.379,-0.915,-1.549,-71.594,220.398,-6.226
-0.346,-0.845,-1.605,-68.176,208.862,11.841
-0.349,-0.790,-1.635,-63.538,196.960,28.381
-0.363,-0.772,-1.672,-61.462,185.974,42.236
-0.347,-0.737,-1.723,-59.753,176.636,53.284
-0.316,-0.700,-1.791,-56.152,168.945,62.378
-0.285,-0.685,-1.857,-50.720,160.706,70.984
-0.269,-0.685,-1.831,-44.678,151.062,80.261
-0.281,-0.685,-1.950,-38.696,142.761,90.881
-0.284,-0.711,-1.985,-26.428,130.371,103.149
-0.251,-0.704,-1.871,-15.137,116.760,120.056
-0.226,-0.631,-1.835,1.587,114.197,141.724
-0.249,-0.542,-1.829,19.714,117.737,161.804
-0.313,-0.448,-1.865,34.058,121.765,177.246
-0.380,-0.349,-1.928,41.077,120.911,187.927
-0.418,-0.261,-2.001,40.588,112.183,193.542
-0.430,-0.197,-2.013,35.400,94.482,195.496
-0.438,-0.157,-1.974,28.564,71.960,196.289
-0.455,-0.139,-1.891,19.226,49.500,196.350
-0.456,-0.121,-1.801,8.972,31.433,195.801
-0.427,-0.118,-1.764,-0.610,19.836,194.946
-0.396,-0.133,-1.803,-6.958,14.160,194.946
-0.406,-0.173,-1.893,-6.714,9.766,195.374
-0.423,-0.237,-1.868,-2.136,1.892,198.364
-0.454,-0.209,-1.870,3.418,-5.371,207.520
-0.490,-0.148,-1.848,12.207,-11.719,216.309
-0.501,-0.076,-1.804,23.560,-17.761,221.924
-0.519,-0.010,-1.729,36.438,-22.095,225.769
-0.544,0.056,-1.650,49.194,-24.719,228.882
-0.557,0.104,-1.602,57.922,-26.550,231.323
-0.566,0.151,-1.598,60.852,-29.114,232.605
-0.570,0.199,-1.600,58.533,-35.095,231.079
-0.582,0.247,-1.608,50.903,-45.776,228.271
-0.605,0.275,-1.608,40.955,-60.791,225.098
-0.620,0.283,-1.577,32.593,-77.454,223.145
-0.612,0.299,-1.560,25.940,-91.919,223.022
-0.611,0.309,-1.592,21.606,-101.929,224.670
-0.671,0.356,-1.615,21.606,-109.680,226.868
-0.749,0.465,-1.613,26.062,-115.662,226.624
-0.777,0.591,-1.590,31.494,-120.483,220.276
-0.772,0.642,-1.615,35.706,-124.512,207.520
-0.733,0.599,-1.705,37.598,-130.310,191.895
-0.725,0.576,-1.737,40.894,-139.832,180.420
-0.753,0.588,-1.686,46.936,-153.015,174.438
-0.772,0.645,-1.566,53.528,-165.283,170.898

0.380,0.351,-0.787,38.940,-8.667,30.151
0.391,0.298,-0.722,39.063,-10.925,25.146
0.464,0.277,-0.704,36.621,-13.428,26.917
0.465,0.230,-0.689,28.992,-11.963,32.715
0.443,0.208,-0.727,20.996,-8.911,39.124
0.465,0.224,-0.799,15.747,-7.446,44.189
0.475,0.252,-0.870,9.888,-9.644,47.974
0.474,0.276,-0.890,6.287,-14.404,51.025
0.499,0.303,-0.892,5.371,-19.104,52.673
0.536,0.272,-0.893,5.432,-23.315,53.040
0.633,0.215,-0.930,5.798,-27.466,54.504
0.730,0.238,-0.969,4.517,-33.142,60.303
0.793,0.341,-1.015,0.610,-41.077,68.726
0.809,0.436,-1.079,-8.179,-52.490,75.256
0.775,0.525,-1.174,-18.188,-70.190,78.186
0.784,0.632,-1.058,-29.480,-89.172,78.003
0.796,0.734,-1.054,-42.908,-105.835,73.608
0.755,0.755,-1.102,-65.247,-125.305,65.002
0.661,0.646,-1.149,-85.083,-144.470,56.824
0.752,0.898,-1.170,-92.102,-161.865,54.932
0.764,1.007,-1.152,-91.797,-175.293,51.086
0.622,1.004,-1.194,-84.961,-183.044,42.480
0.480,1.112,-1.114,-69.458,-185.974,35.706
0.382,1.276,-1.020,-49.377,-183.899,26.245
0.313,1.412,-0.995,-33.813,-178.101,10.010
0.245,1.462,-1.005,-22.705,-172.241,-9.644
0.184,1.482,-1.015,-14.038,-169.739,-30.273
0.123,1.485,-1.070,-10.864,-172.729,-51.147
0.100,1.406,-1.105,-12.878,-182.861,-72.388
0.081,1.290,-1.117,-14.771,-200.134,-91.858
0.024,1.212,-1.062,-15.442,-222.473,-107.422
-0.059,1.151,-0.950,-16.785,-246.277,-118.835
-0.153,1.078,-0.779,-20.508,-267.456,-128.906
-0.223,0.998,-0.608,-23.987,-282.166,-139.465
-0.261,0.906,-0.442,-23.621,-287.354,-152.588
-0.302,0.770,-0.298,-17.151,-282.227,-169.189
-0.298,0.691,-0.158,-9.888,-269.714,-186.157
-0.293,0.586,-0.114,-10.132,-252.625,-204.590
-0.297,0.523,-0.125,-18.677,-237.671,-221.497
-0.317,0.513,-0.143,-32.593,-230.225,-237.305
-0.367,0.425,-0.164,-50.781,-229.248,-253.418
-0.391,0.301,-0.190,-63.477,-230.957,-266.418
-0.381,0.208,-0.167,-65.063,-234.680,-274.109
-0.406,0.103,-0.181,-60.120,-234.192,-279.724
-0.401,0.032,-0.141,-52.002,-229.492,-285.706
-0.430,-0.057,-0.137,-42.542,-218.201,-293.274
-0.462,-0.113,-0.067,-26.001,-202.148,-302.002
-0.521,-0.175,0.010,-6.409,-181.885,-312.256
-0.513,-0.229,0.151,8.545,-156.738,-321.777
-0.599,-0.321,0.069,20.142,-125.122,-329.163
-0.543,-0.356,0.183,27.954,-104.492,-329.407
-0.668,-0.503,0.030,39.734,-73.486,-341.125
-0.663,-0.613,-0.100,46.326,-49.438,-347.961
-0.606,-0.705,-0.246,49.500,-39.673,-348.633
-0.550,-0.813,-0.321,54.626,-43.213,-346.069
-0.511,-0.922,-0.300,60.852,-55.786,-340.454
-0.439,-0.998,-0.250,68.176,-71.411,-331.299
-0.441,-1.068,-0.081,74.768,-86.853,-317.505
-0.478,-1.128,0.144,74.097,-91.248,-296.326
-0.490,-1.107,0.262,80.139,-77.942,-273.071
-0.496,-1.133,0.202,90.454,-51.331,-254.883
-0.509,-1.038,0.212,93.994,-23.804,-236.694
-0.582,-0.931,0.104,101.929,-3.296,-221.924
-0.739,-0.916,-0.033,115.662,15.503,-224.182
-0.803,-1.056,-0.082,129.944,24.902,-236.328
-0.790,-1.259,-0.061,146.851,30.945,-254.700
-0.693,-1.463,0.083,155.396,33.630,-263.489
-0.612,-1.668,0.157,170.044,38.757,-261.719
-0.590,-1.849,0.161,188.538,54.321,-252.869
-0.442,-2.087,0.283,190.918,62.378,-226.929
-0.412,-2.081,0.242,189.026,73.669,-186.646
-0.365,-2.185,0.236,176.270,82.458,-144.714
-0.315,-2.220,0.236,170.898,91.187,-105.774
-0.314,-2.199,0.233,172.913,107.849,-69.458
-0.325,-2.194,0.209,170.532,126.343,-31.067
-0.339,-2.151,0.140,169.006,144.592,10.803
-0.364,-2.073,0.059,171.936,162.598,52.917
-0.398,-1.997,-0.004,181.702,180.664,89.905
-0.416,-1.930,-0.052,196.045,198.486,117.981
-0.433,-1.880,-0.076,212.524,215.210,139.587
-0.459,-1.825,-0.109,227.417,231.934,154.419
-0.470,-1.817,-0.143,237.305,248.291,162.292
-0.455,-1.870,-0.229,234.375,261.780,169.617
-0.371,-1.914,-0.375,220.825,269.226,180.969
-0.275,-1.955,-0.506,205.078,270.203,195.801
-0.233,-1.991,-0.616,189.758,265.808,214.417
-0.213,-1.985,-0.720,175.110,258.667,237.000
-0.200,-1.945,-0.781,163.330,250.977,259.949
-0.209,-1.870,-0.809,158.691,247.131,280.945
-0.212,-1.740,-0.881,160.950,250.122,297.607
-0.184,-1.620,-1.032,162.170,257.629,309.875
-0.134,-1.500,-1.218,166.687,263.550,320.068
-0.080,-1.337,-1.420,179.077,265.869,329.834
-0.041,-1.172,-1.608,194.763,260.742,339.966
-0.009,-1.027,-1.729,209.717,245.605,350.647
0.019,-0.900,-1.766,221.985,222.473,362.549
0.022,-0.759,-1.733,229.858,194.519,374.878
0.015,-0.598,-1.649,230.530,166.504,387.268
-0.023,-0.435,-1.570,224.609,141.724,396.790
-0.092,-0.273,-1.539,213.318,120.300,400.757
-0.161,-0.132,-1.558,198.181,100.281,399.353
-0.237,0.015,-1.590,180.908,79.102,391.479
-0.282,0.176,-1.576,162.781,56.763,376.831
-0.304,0.322,-1.573,146.851,36.560,353.516
-0.312,0.432,-1.638,133.606,19.592,323.486
-0.301,0.483,-1.700,123.413,2.686,292.725
-0.282,0.522,-1.698,117.126,-17.151,267.395
-0.277,0.547,-1.645,114.624,-37.781,247.742
-0.289,0.544,-1.571,112.915,-55.054,234.741
-0.308,0.541,-1.499,112.305,-66.895,227.539
-0.328,0.585,-1.413,113.770,-73.547,225.037
-0.386,0.715,-1.346,115.479,-75.928,224.182
-0.466,0.869,-1.317,113.831,-77.515,219.604
-0.528,0.960,-1.279,108.521,-82.275,207.092
-0.567,1.022,-1.249,103.333,-89.722,186.829
-0.590,1.030,-1.199,96.375,-98.083,161.133
-0.576,0.995,-1.138,88.623,-106.140,132.751
-0.551,0.955,-1.045,81.726,-113.342,104.065
-0.512,0.917,-0.989,75.012,-118.164,76.111
-0.462,0.873,-0.955,68.909,-121.033,49.805
-0.430,0.818,-0.926,65.735,-123.535,27.222
-0.395,0.750,-0.878,65.979,-126.282,7.385
-0.352,0.677,-0.809,68.848,-128.357,-8.789
-0.307,0.604,-0.727,71.777,-128.235,-21.545
-0.262,0.531,-0.668,72.571,-124.817,-30.457
-0.222,0.466,-0.619,72.754,-118.835,-36.255
-0.193,0.413,-0.566,72.754,-111.755,-40.710
-0.159,0.378,-0.525,71.289,-104.492,-46.082
-0.101,0.342,-0.518,69.153,-96.436,-52.856
-0.056,0.273,-0.501,67.383,-88.684,-60.547
-0.011,0.192,-0.506,67.444,-81.299,-67.383
0.031,0.116,-0.514,70.251,-74.768,-71.350
0.079,0.058,-0.488,73.730,-69.397,-71.960
0.121,0.036,-0.411,75.867,-64.819,-70.679
0.141,0.038,-0.338,76.111,-59.204,-68.054
0.148,0.044,-0.296,71.533,-52.063,-66.040
0.172,0.059,-0.291,62.195,-44.434,-64.819
0.203,0.063,-0.318,52.368,-37.476,-65.063
0.234,0.041,-0.342,44.434,-32.532,-67.566
0.253,-0.041,-0.335,39.246,-28.687,-70.740
0.283,-0.078,-0.342,36.377,-24.841,-72.021
0.339,-0.111,-0.374,34.058,-20.569,-71.106
0.384,-0.155,-0.397,32.471,-17.029,-68.054
0.416,-0.199,-0.413,32.715,-13.855,-63.110
0.443,-0.190,-0.447,32.349,-10.803,-56.396
0.492,-0.201,-0.494,31.006,-8.057,-48.950
0.542,-0.197,-0.559,31.921,-6.348,-41.504
0.557,-0.136,-0.583,37.170,-5.554,-35.095
0.540,-0.084,-0.537,46.631,-4.639,-32.593

0.535,0.656,-0.827,90.515,6.042,32.288
0.533,0.702,-0.596,80.078,-4.333,27.527
0.555,0.646,-0.556,73.303,-7.507,16.724
0.542,0.519,-0.517,57.251,-10.559,10.071
0.592,0.456,-0.470,40.405,-14.465,10.498
0.618,0.434,-0.522,22.644,-17.029,15.869
0.642,0.422,-0.590,9.216,-19.653,22.339
0.706,0.378,-0.566,7.996,-22.705,31.067
0.757,0.366,-0.555,17.029,-19.409,44.067
0.763,0.403,-0.557,36.865,-9.033,62.317
0.736,0.537,-0.513,67.505,6.042,80.078
0.691,0.686,-0.512,98.206,24.353,89.478
0.684,0.796,-0.529,119.934,38.940,88.013
0.705,0.862,-0.521,132.690,44.434,81.421
0.704,0.868,-0.541,134.644,41.260,74.219
0.690,0.879,-0.554,129.639,31.189,68.665
0.663,0.910,-0.559,122.192,17.151,64.636
0.659,0.975,-0.426,116.028,2.563,63.110
0.580,0.985,-0.665,116.638,-4.517,65.369
0.586,0.998,-0.711,115.540,-18.921,70.618
0.602,0.956,-0.561,138.306,-26.672,76.904
0.518,0.986,-0.326,178.040,-23.743,81.299
0.317,0.983,-0.201,219.788,-8.301,80.627
0.349,0.861,-0.116,261.902,12.878,74.402
0.415,0.870,0.127,308.167,34.180,65.125
0.335,0.790,0.355,362.000,56.580,52.673
0.251,0.742,0.532,383.972,78.308,44.434
0.181,0.829,0.632,378.540,93.750,44.373
0.140,0.910,0.647,375.854,100.769,46.692
0.108,0.870,0.785,363.342,99.304,41.870
0.022,0.984,0.812,339.539,95.276,36.987
0.050,1.012,0.921,313.293,89.661,31.189
0.026,0.937,0.936,277.466,84.595,26.611
-0.037,0.822,0.944,239.319,78.491,27.344
-0.083,0.770,1.024,203.613,72.021,33.386
-0.137,0.779,1.135,174.561,70.923,40.222
-0.150,0.766,1.250,150.696,78.674,42.847
-0.210,0.676,1.315,130.127,95.581,40.710
-0.256,0.633,1.257,108.215,117.371,38.330
-0.298,0.609,1.131,81.360,136.780,39.978
-0.356,0.596,1.025,53.467,149.414,46.082
-0.433,0.618,0.898,23.315,156.738,55.176
-0.504,0.616,0.710,-3.723,161.926,62.073
-0.592,0.623,0.617,-19.592,165.405,63.171
-0.645,0.578,0.563,-20.386,169.739,59.265
-0.679,0.495,0.547,-14.099,178.223,53.162
-0.705,0.438,0.561,-5.676,190.857,48.218
-0.727,0.395,0.576,0.183,206.116,44.922
-0.723,0.357,0.605,-1.465,223.206,43.579
-0.723,0.342,0.575,-13.977,241.150,43.274
-0.756,0.325,0.412,-45.166,257.690,43.762
-0.772,0.310,0.146,-93.933,269.165,43.274
-0.758,0.285,-0.206,-148.621,271.912,39.429
-0.749,0.227,-0.585,-190.796,265.320,31.189
-0.691,0.138,-0.816,-201.355,252.197,17.761
-0.591,0.089,-0.831,-176.697,240.234,2.686
-0.510,0.020,-0.728,-137.390,235.718,-5.798
-0.472,-0.058,-0.580,-100.220,240.356,-3.235
-0.471,-0.055,-0.482,-75.867,251.648,12.146
-0.527,0.011,-0.489,-70.862,266.968,34.729
-0.588,0.077,-0.571,-80.505,279.907,52.917
-0.592,0.085,-0.728,-99.304,284.729,61.584
-0.561,0.028,-0.929,-123.962,278.992,63.843
-0.529,-0.025,-1.057,-147.949,261.353,65.491
-0.498,-0.034,-1.122,-170.349,237.366,70.251
-0.499,-0.061,-1.185,-193.542,214.050,77.637
-0.505,-0.062,-1.276,-211.243,197.693,85.571
-0.527,-0.049,-1.391,-220.337,187.805,92.468
-0.524,-0.033,-1.572,-223.938,182.739,97.778
-0.500,-0.047,-1.778,-216.553,178.101,101.074
-0.505,-0.074,-1.873,-189.758,170.044,103.455
-0.531,-0.039,-1.785,-147.583,160.400,106.750
-0.545,0.032,-1.675,-109.375,155.701,112.915
-0.545,0.060,-1.656,-87.524,156.006,121.521
-0.528,0.087,-1.700,-79.102,154.175,131.165
-0.496,0.094,-1.802,-79.590,146.606,140.015
-0.476,0.078,-1.897,-83.679,131.714,147.705
-0.456,0.054,-1.974,-87.402,111.877,155.823
-0.450,0.009,-1.997,-86.853,90.088,165.405
-0.486,-0.032,-1.944,-79.041,70.862,179.016
-0.557,0.004,-1.937,-68.298,58.167,198.364
-0.659,0.077,-1.943,-53.345,51.086,218.445
-0.755,0.142,-1.870,-25.879,46.631,232.483
-0.835,0.325,-1.808,12.634,49.805,241.028
-0.931,0.536,-1.833,39.429,50.110,244.507
-0.903,0.557,-1.812,34.180,28.992,240.967
-0.980,0.467,-1.717,12.268,-6.958,233.826
-1.004,0.459,-1.625,2.563,-30.701,229.492
-1.028,0.443,-1.555,0.061,-43.030,231.995
-1.087,0.502,-1.491,6.836,-46.875,240.662
-1.192,0.592,-1.432,14.160,-45.654,247.803
-1.257,0.669,-1.424,18.982,-45.654,249.512
-1.243,0.767,-1.476,30.945,-43.762,242.249
-1.224,0.807,-1.542,49.500,-42.358,229.614
-1.218,0.833,-1.527,70.007,-47.302,219.849
-1.196,0.848,-1.507,82.397,-57.434,216.003
-1.182,0.817,-1.514,87.891,-69.458,213.440
-1.184,0.766,-1.485,94.055,-82.825,209.106
-1.177,0.706,-1.390,101.440,-96.619,204.285
-1.170,0.683,-1.235,106.201,-108.643,201.233
-1.178,0.703,-1.122,103.943,-116.882,200.073
-1.202,0.778,-1.063,94.421,-122.253,199.097
-1.222,0.900,-1.040,83.069,-127.747,195.374
-1.208,0.958,-1.052,73.792,-133.362,185.120
-1.183,0.936,-1.053,69.519,-139.221,169.434
-1.148,0.880,-0.980,72.510,-144.226,152.710
-1.108,0.830,-0.900,75.989,-146.606,137.329
-1.065,0.787,-0.886,74.463,-146.057,124.756
-1.016,0.775,-0.960,66.650,-144.714,117.920
-0.979,0.740,-1.041,58.838,-145.691,115.784
-1.010,0.763,-1.040,57.617,-149.780,114.929
-1.049,0.860,-1.021,55.725,-155.518,110.718
-1.063,0.924,-1.037,47.058,-162.231,102.112
-1.094,0.960,-1.023,38.818,-171.509,90.271
-1.094,0.961,-0.955,34.790,-180.420,77.454
-1.048,0.936,-0.867,28.503,-185.608,66.895
-1.011,0.918,-0.823,17.639,-186.401,58.594
-0.955,0.885,-0.822,6.226,-183.899,49.866
-0.916,0.852,-0.837,-2.991,-179.687,41.748
-0.903,0.815,-0.844,-9.949,-175.781,35.461
-0.877,0.789,-0.820,-14.954,-173.584,29.724
-0.837,0.784,-0.798,-17.883,-171.692,23.560
-0.789,0.768,-0.810,-24.902,-167.725,18.066
-0.764,0.743,-0.852,-33.386,-162.781,14.465
-0.758,0.712,-0.908,-35.400,-159.180,11.169
-0.786,0.681,-0.970,-32.166,-157.288,7.874
-0.803,0.674,-1.054,-25.085,-156.799,2.869
-0.803,0.660,-1.110,-12.024,-159.363,-5.615
-0.801,0.662,-1.093,7.751,-165.588,-19.531
-0.781,0.661,-0.984,28.381,-173.401,-37.842
-0.734,0.687,-0.927,41.565,-179.138,-57.129
-0.687,0.687,-0.893,44.678,-183.044,-74.707
-0.671,0.684,-0.846,43.335,-186.096,-88.440
-0.665,0.687,-0.809,39.551,-188.660,-99.243
-0.620,0.640,-0.800,36.438,-192.383,-109.863
-0.545,0.577,-0.775,35.095,-197.021,-120.972
-0.454,0.497,-0.705,34.851,-201.294,-130.432
-0.370,0.432,-0.603,34.790,-202.698,-136.047
-0.266,0.389,-0.474,32.776,-199.158,-136.963
-0.169,0.365,-0.375,28.625,-189.575,-133.240
-0.113,0.309,-0.363,21.973,-174.988,-126.648
-0.083,0.257,-0.374,15.442,-158.936,-116.882
-0.057,0.256,-0.375,12.268,-143.188,-106.262
-0.030,0.267,-0.390,12.939,-128.479,-98.389
-0.014,0.260,-0.412,14.343,-114.258,-94.543
0.017,0.222,-0.438,17.029,-101.685,-93.262
0.069,0.167,-0.462,22.400,-90.576,-93.140
0.123,0.083,-0.492,30.945,-80.811,-91.125
0.156,0.034,-0.504,41.382,-71.899,-86.487

0.667,0.315,-1.036,14.526,7.812,-16.113
0.748,0.300,-0.812,13.123,-4.395,-7.446
0.749,0.224,-0.814,5.493,-12.634,-1.221
0.708,0.244,-0.855,-4.456,-15.564,4.700
0.687,0.263,-0.829,-8.850,-19.958,9.216
0.650,0.282,-0.760,-10.010,-24.841,10.925
0.639,0.297,-0.759,-14.893,-26.978,10.925
0.643,0.280,-0.744,-19.104,-28.564,8.423
0.644,0.240,-0.714,-18.250,-30.212,5.249
0.648,0.230,-0.704,-14.893,-29.846,4.333
0.666,0.188,-0.723,-8.972,-28.137,5.920
0.676,0.198,-0.739,-0.854,-26.794,8.362
0.673,0.208,-0.705,7.812,-26.672,9.888
0.679,0.199,-0.694,9.277,-26.245,12.756
0.705,0.230,-0.734,0.488,-26.001,18.250
0.657,0.280,-0.895,-8.606,-25.085,23.193
0.627,0.318,-0.901,-26.550,-29.663,25.024
0.600,0.377,-0.888,-36.316,-39.185,22.156
0.585,0.456,-0.766,-35.645,-47.302,15.564
0.588,0.554,-0.716,-33.081,-48.950,5.371
0.701,0.613,-0.751,-33.630,-45.288,-6.958
0.770,0.630,-0.835,-34.180,-42.297,-19.836
0.752,0.635,-0.921,-28.564,-43.396,-27.954
0.680,0.656,-0.941,-19.470,-48.279,-30.212
0.631,0.711,-0.873,-13.123,-54.810,-30.151
0.623,0.774,-0.742,-14.465,-59.998,-32.471
0.626,0.804,-0.646,-20.325,-61.829,-38.330
0.616,0.832,-0.575,-28.137,-60.486,-45.837
0.569,0.862,-0.525,-43.213,-57.617,-55.298
0.499,0.918,-0.508,-65.857,-55.237,-68.298
0.418,0.970,-0.547,-96.252,-55.969,-85.938
0.352,0.928,-0.676,-135.132,-62.683,-107.849
0.307,0.797,-0.855,-173.523,-79.163,-129.456
0.266,0.642,-0.962,-202.637,-106.628,-144.653
0.190,0.540,-0.938,-215.576,-140.930,-152.344
0.097,0.545,-0.811,-212.891,-173.767,-157.471
0.011,0.607,-0.606,-205.078,-199.219,-166.382
-0.060,0.668,-0.387,-198.730,-216.187,-184.326
-0.132,0.687,-0.209,-197.754,-226.440,-211.426
-0.184,0.664,-0.090,-204.163,-232.300,-242.371
-0.206,0.620,-0.068,-215.454,-234.619,-270.386
-0.249,0.429,-0.015,-222.900,-235.229,-293.457
-0.327,0.357,0.237,-233.215,-233.154,-310.486
-0.346,0.252,0.244,-257.996,-225.037,-321.472
-0.387,-0.004,0.016,-274.475,-213.013,-329.468
-0.450,-0.167,-0.128,-260.315,-203.674,-335.632
-0.495,-0.247,-0.146,-221.863,-195.862,-342.834
-0.504,-0.408,-0.071,-168.762,-187.012,-349.976
-0.484,-0.603,0.017,-113.403,-173.096,-349.670
-0.442,-0.769,0.061,-55.542,-152.832,-337.830
-0.382,-0.897,0.092,3.662,-127.136,-315.430
-0.329,-0.968,0.109,61.646,-98.328,-286.499
-0.322,-0.977,0.123,116.272,-69.641,-256.042
-0.385,-0.894,0.111,157.715,-45.654,-228.821
-0.439,-0.847,0.175,180.786,-29.846,-208.496
-0.509,-0.751,0.214,193.909,-17.639,-196.350
-0.564,-0.715,0.270,190.613,-9.155,-194.580
-0.619,-0.714,0.329,171.143,-4.700,-199.219
-0.656,-0.777,0.334,139.648,-1.892,-206.848
-0.647,-0.882,0.269,104.492,0.488,-213.989
-0.610,-0.992,0.188,72.815,1.343,-216.675
-0.561,-1.129,0.131,49.072,-0.610,-212.830
-0.491,-1.226,0.089,39.246,-2.869,-201.172
-0.399,-1.324,0.100,42.603,-2.319,-182.739
-0.408,-1.278,0.070,59.631,5.310,-160.583
-0.425,-1.300,0.133,74.036,15.381,-137.695
-0.465,-1.252,0.105,95.215,28.503,-116.394
-0.551,-1.238,0.058,113.770,44.312,-99.304
-0.583,-1.187,0.159,120.178,62.927,-87.341
-0.638,-1.187,0.128,134.277,83.862,-78.918
-0.699,-1.157,0.051,146.973,102.295,-72.144
-0.709,-1.162,-0.004,148.926,116.577,-67.444
-0.699,-1.204,-0.079,148.132,127.136,-65.857
-0.694,-1.275,-0.177,145.386,135.254,-67.383
-0.690,-1.364,-0.270,137.573,140.808,-70.435
-0.694,-1.500,-0.333,123.657,141.357,-73.181
-0.715,-1.647,-0.363,108.765,138.550,-73.120
-0.705,-1.739,-0.435,93.384,136.475,-67.200
-0.639,-1.820,-0.488,80.383,133.850,-58.655
-0.602,-1.908,-0.536,76.599,130.005,-48.828
-0.602,-2.003,-0.609,74.890,128.540,-36.072
-0.523,-2.096,-0.660,77.026,133.423,-21.851
-0.406,-2.173,-0.696,86.853,142.761,-7.568
-0.337,-2.307,-0.722,101.013,153.687,9.583
-0.301,-2.418,-0.732,115.112,166.504,32.471
-0.252,-2.453,-0.721,128.601,181.152,61.218
-0.195,-2.425,-0.711,139.465,197.388,93.201
-0.136,-2.327,-0.739,148.437,213.501,125.183
-0.118,-2.223,-0.798,154.358,227.295,155.334
-0.146,-2.110,-0.856,158.386,236.145,182.190
-0.167,-1.958,-0.917,160.339,239.929,204.956
-0.156,-1.818,-0.963,160.461,239.624,222.534
-0.130,-1.718,-0.982,159.607,235.779,234.619
-0.115,-1.616,-0.990,156.799,229.553,244.995
-0.103,-1.488,-1.030,148.560,222.351,256.348
-0.093,-1.335,-1.097,137.024,213.196,265.503
-0.088,-1.218,-1.180,123.657,201.355,268.860
-0.084,-1.145,-1.271,109.985,186.279,268.005
-0.034,-1.063,-1.354,98.572,168.945,264.404
0.013,-0.998,-1.459,89.722,150.574,259.521
0.023,-0.953,-1.573,82.214,131.531,255.249
0.019,-0.906,-1.666,78.064,111.328,252.502
0.014,-0.847,-1.722,78.430,91.003,251.343
0.006,-0.792,-1.741,81.482,72.937,252.319
-0.004,-0.727,-1.777,86.121,58.472,254.028
-0.019,-0.661,-1.796,90.271,46.997,254.395
-0.046,-0.602,-1.793,95.154,36.011,252.136
-0.070,-0.552,-1.770,101.257,25.391,248.047
-0.108,-0.458,-1.748,108.093,15.198,244.629
-0.156,-0.374,-1.741,112.122,4.944,240.784
-0.194,-0.292,-1.743,116.394,-7.202,236.450
-0.220,-0.204,-1.713,123.230,-21.179,231.689
-0.240,-0.134,-1.637,133.118,-34.790,223.816
-0.260,-0.080,-1.549,144.897,-45.837,213.196
-0.281,-0.034,-1.497,155.273,-53.040,202.759
-0.320,0.014,-1.453,164.246,-58.472,193.237
-0.350,0.091,-1.385,169.800,-63.293,183.350
-0.367,0.175,-1.321,174.622,-67.322,172.668
-0.372,0.236,-1.270,180.298,-71.472,160.889
-0.378,0.280,-1.235,183.533,-77.026,147.400
-0.382,0.298,-1.199,182.556,-83.618,131.653
-0.370,0.296,-1.136,179.138,-91.003,113.831
-0.342,0.293,-1.059,174.683,-97.412,95.581
-0.303,0.293,-0.985,168.396,-102.417,78.308
-0.259,0.278,-0.939,160.706,-106.445,61.646
-0.231,0.233,-0.883,152.954,-110.718,46.204
-0.204,0.199,-0.809,146.790,-114.380,33.691
-0.166,0.187,-0.730,141.602,-116.516,24.963
-0.129,0.169,-0.667,136.719,-116.516,19.165
-0.078,0.143,-0.592,135.254,-113.403,14.893
-0.038,0.134,-0.536,136.597,-105.225,10.437
-0.017,0.140,-0.468,134.644,-94.543,8.728
-0.047,0.245,-0.434,130.554,-82.153,7.996
-0.036,0.164,-0.445,114.929,-70.129,4.639
0.003,0.069,-0.499,104.553,-62.195,-0.671
0.020,0.051,-0.522,109.680,-57.495,-5.188
0.023,0.059,-0.494,115.662,-52.917,-9.155
0.037,0.061,-0.453,118.835,-46.997,-14.954
0.066,0.067,-0.419,121.338,-40.771,-22.766
0.091,0.086,-0.390,121.460,-35.034,-32.288
0.112,0.100,-0.360,117.249,-29.968,-41.809
0.143,0.113,-0.345,110.291,-25.513,-51.331
0.183,0.110,-0.364,101.868,-22.095,-60.608
0.219,0.068,-0.415,91.919,-20.325,-69.092
0.251,-0.010,-0.442,81.787,-19.836,-74.524
0.289,-0.089,-0.439,73.608,-19.958,-75.928
0.333,-0.145,-0.404,68.054,-19.409,-73.486
0.374,-0.186,-0.383,64.270,-16.113,-68.787
0.406,-0.225,-0.395,63.843,-10.742,-63.416

0.458,0.388,-0.932,11.169,23.132,-6.531
0.470,0.355,-0.842,5.310,17.090,-4.822
0.488,0.362,-0.886,4.089,12.512,-2.930
0.451,0.339,-0.862,1.831,11.230,-1.648
0.435,0.402,-0.836,-2.197,9.827,-0.305
0.423,0.454,-0.859,-7.874,9.583,-1.465
0.430,0.457,-0.872,-12.451,8.484,-5.310
0.444,0.436,-0.860,-14.404,6.592,-9.705
0.466,0.430,-0.870,-15.076,5.493,-11.414
0.466,0.445,-0.865,-13.550,4.822,-10.437
0.443,0.503,-0.839,-9.827,4.822,-7.019
0.438,0.587,-0.829,-5.981,7.385,-3.906
0.439,0.681,-0.831,-0.732,12.024,-2.869
0.419,0.755,-0.840,6.226,18.005,-3.357
0.358,0.849,-0.852,14.893,24.048,-3.784
0.239,0.928,-0.854,24.231,28.992,-4.578
0.167,1.026,-0.673,32.654,30.945,-6.836
0.018,1.151,-0.823,38.574,30.029,-13.855
-0.052,1.224,-0.803,45.471,34.912,-25.757
-0.117,1.223,-0.763,50.842,37.109,-43.274
-0.139,1.199,-0.694,54.382,39.917,-63.110
-0.160,1.136,-0.663,55.664,45.776,-83.069
-0.202,0.970,-0.648,52.368,51.880,-100.891
-0.166,0.897,-0.632,48.828,55.298,-114.624
-0.147,0.858,-0.596,45.898,57.495,-127.502
-0.171,0.691,-0.607,37.476,58.960,-141.663
-0.182,0.560,-0.595,33.630,60.242,-154.541
-0.151,0.399,-0.579,34.607,61.462,-163.696
-0.080,0.220,-0.502,39.246,64.209,-168.518
-0.033,0.073,-0.370,47.485,70.435,-167.725
-0.006,-0.065,-0.240,55.725,82.397,-161.072
0.001,-0.175,-0.184,59.082,98.816,-149.536
0.001,-0.231,-0.182,58.044,115.784,-135.254
-0.013,-0.268,-0.213,57.678,129.883,-122.803
-0.039,-0.354,-0.252,57.129,140.808,-114.502
-0.050,-0.470,-0.252,54.016,149.597,-109.192
-0.045,-0.591,-0.236,53.406,158.875,-105.530
-0.033,-0.704,-0.259,53.528,170.044,-100.830
-0.014,-0.815,-0.335,47.363,179.321,-91.553
0.003,-0.901,-0.424,36.621,184.387,-76.111
0.006,-0.946,-0.530,25.330,184.814,-56.519
-0.017,-0.961,-0.635,13.000,182.861,-35.583
-0.071,-0.968,-0.735,0.549,179.321,-15.442
-0.110,-0.972,-0.842,-10.742,175.171,2.625
-0.137,-0.989,-0.972,-18.188,171.326,19.531
-0.169,-1.037,-1.126,-21.423,167.053,36.011
-0.182,-1.050,-1.290,-19.531,162.964,53.040
-0.192,-1.028,-1.419,-15.015,159.241,71.533
-0.188,-1.014,-1.535,-7.080,155.396,89.966
-0.198,-0.974,-1.591,3.723,151.123,106.934
-0.238,-0.892,-1.592,15.259,146.118,122.375
-0.232,-0.826,-1.649,24.719,140.991,135.010
-0.221,-0.809,-1.722,30.273,133.545,145.508
-0.249,-0.758,-1.675,29.907,125.305,156.433
-0.337,-0.686,-1.687,38.696,119.568,168.396
-0.357,-0.520,-1.767,54.749,118.225,179.810
-0.405,-0.371,-1.888,55.298,117.188,192.688
-0.434,-0.250,-1.979,51.270,105.591,205.383
-0.465,-0.084,-1.970,54.138,89.600,213.135
-0.495,0.028,-2.003,50.415,74.646,216.309
-0.518,0.131,-2.097,44.861,60.608,217.102
-0.556,0.258,-2.147,42.175,44.189,218.384
-0.597,0.402,-2.132,44.189,27.039,220.642
-0.635,0.547,-2.065,50.842,12.451,221.741
-0.661,0.680,-1.982,59.753,2.197,220.703
-0.657,0.803,-1.936,70.435,-4.089,216.980
-0.662,0.900,-1.917,81.970,-9.338,212.158
-0.697,0.998,-1.901,92.224,-17.273,208.740
-0.738,1.136,-1.843,102.722,-28.564,205.688
-0.789,1.251,-1.761,110.718,-42.236,198.914
-0.847,1.345,-1.658,113.831,-56.702,187.622
-0.886,1.424,-1.558,114.258,-71.350,171.814
-0.903,1.456,-1.462,111.694,-85.510,152.161
-0.897,1.427,-1.356,109.070,-98.572,130.798
-0.879,1.345,-1.219,106.995,-110.535,111.694
-0.863,1.270,-1.080,106.750,-119.812,96.680
-0.853,1.206,-0.954,109.253,-123.352,83.862
-0.864,1.147,-0.874,111.633,-122.803,72.876
-0.889,1.117,-0.789,113.159,-121.765,64.941
-0.929,1.155,-0.695,112.183,-121.216,58.838
-0.974,1.202,-0.630,106.018,-120.728,50.476
-1.003,1.223,-0.591,95.764,-120.605,38.147
-1.015,1.232,-0.589,84.290,-120.728,22.949
-1.022,1.216,-0.585,75.012,-121.033,7.446
-1.031,1.181,-0.566,69.458,-121.033,-5.859
-1.027,1.154,-0.517,66.956,-119.629,-15.991
-1.028,1.136,-0.440,66.772,-115.479,-24.841
-1.021,1.128,-0.383,67.566,-108.704,-34.912
-1.008,1.123,-0.354,67.627,-100.464,-47.852
-1.000,1.114,-0.334,65.979,-92.041,-64.148
-0.995,1.085,-0.308,62.317,-84.167,-83.130
-0.972,1.028,-0.276,57.556,-77.393,-104.675
-0.919,0.946,-0.260,50.537,-70.984,-127.502
-0.846,0.816,-0.273,41.748,-64.819,-148.621
-0.765,0.657,-0.286,33.875,-59.937,-165.833
-0.684,0.505,-0.279,27.466,-56.030,-177.063
-0.597,0.390,-0.260,23.132,-52.368,-181.702
-0.517,0.297,-0.245,19.348,-47.241,-181.152
-0.463,0.244,-0.215,15.015,-41.687,-178.406
-0.438,0.217,-0.190,8.545,-35.767,-175.598
-0.428,0.200,-0.197,0.732,-29.663,-173.950
-0.401,0.167,-0.215,-7.141,-23.987,-174.744
-0.358,0.099,-0.214,-11.414,-17.944,-176.147
-0.297,-0.005,-0.207,-12.512,-10.071,-178.467
-0.219,-0.118,-0.221,-11.536,0.916,-179.260
-0.125,-0.218,-0.295,-9.644,14.954,-177.673
-0.023,-0.326,-0.415,-7.446,29.663,-172.729
0.076,-0.408,-0.527,-4.395,42.725,-164.368
0.174,-0.466,-0.658,-0.122,52.856,-153.625
0.287,-0.522,-0.798,5.066,59.998,-143.127
0.410,-0.584,-0.897,12.451,63.354,-132.874
0.509,-0.636,-0.962,19.409,64.697,-121.338
0.596,-0.661,-1.045,22.949,64.819,-107.178
0.656,-0.649,-1.125,24.353,62.134,-89.844
0.673,-0.588,-1.150,25.024,55.786,-68.970
0.663,-0.482,-1.124,22.766,47.180,-47.058
0.641,-0.360,-1.110,16.541,38.818,-26.245
0.615,-0.247,-1.106,7.874,31.250,-8.423
0.565,-0.156,-1.114,0.000,24.536,5.371
0.506,-0.058,-1.099,-5.493,18.494,16.907
0.437,0.052,-1.075,-10.742,13.306,25.635
0.375,0.175,-1.071,-16.846,9.033,30.945
0.330,0.271,-1.082,-22.949,5.005,32.715
0.285,0.352,-1.098,-26.489,0.061,31.494
0.254,0.410,-1.095,-27.832,-4.150,28.625
0.239,0.450,-1.068,-26.550,-7.874,23.621
0.233,0.469,-1.024,-23.621,-9.644,17.578
0.235,0.486,-1.012,-21.179,-8.606,12.512
0.241,0.496,-1.015,-18.066,-6.165,9.460
0.252,0.510,-1.016,-13.306,-4.333,7.324
0.266,0.538,-1.013,-8.057,-3.906,4.883
0.272,0.550,-0.982,-4.028,-4.700,2.563
0.243,0.552,-0.965,-3.296,-5.554,0.916
0.202,0.562,-0.973,-5.005,-6.531,1.038
0.182,0.585,-0.975,-7.996,-8.606,2.197
0.179,0.606,-0.952,-10.437,-12.085,2.441
0.173,0.609,-0.943,-9.888,-14.832,0.793
0.155,0.602,-0.916,-10.132,-16.602,-2.563
0.159,0.563,-0.899,-12.207,-18.921,-5.615
0.179,0.524,-0.895,-11.658,-20.508,-8.057
0.196,0.491,-0.882,-9.338,-20.752,-8.606
0.202,0.464,-0.857,-5.127,-19.592,-7.507
0.200,0.447,-0.832,0.183,-17.822,-5.188
0.208,0.442,-0.813,5.432,-14.954,-2.869
0.215,0.455,-0.804,10.193,-11.353,-0.305
0.212,0.464,-0.810,14.648,-7.690,1.038
0.201,0.457,-0.822,17.822,-5.005,1.343
0.197,0.461,-0.816,20.386,-3.418,1.892
0.202,0.483,-0.813,22.766,-2.930,1.770

0.346,0.551,-0.829,32.166,-10.681,-1.343
0.349,0.575,-0.750,18.982,-15.930,3.723
0.359,0.615,-0.796,1.831,-24.536,6.287
0.345,0.553,-0.900,-15.625,-30.701,3.967
0.384,0.520,-0.959,-24.048,-38.879,1.831
0.394,0.482,-0.876,-23.132,-48.950,3.235
0.373,0.493,-0.766,-23.437,-53.589,8.179
0.343,0.612,-0.730,-28.931,-51.636,13.611
0.307,0.669,-0.750,-35.828,-47.607,13.245
0.314,0.664,-0.744,-37.842,-44.189,6.287
0.339,0.660,-0.763,-36.011,-40.527,-1.770
0.346,0.659,-0.780,-33.936,-37.781,-7.202
0.337,0.658,-0.789,-31.250,-37.781,-11.658
0.318,0.666,-0.820,-31.006,-39.917,-15.442
0.328,0.677,-0.767,-36.926,-45.959,-18.616
0.258,0.726,-0.915,-49.988,-56.030,-20.386
0.263,0.855,-0.905,-75.562,-70.496,-22.522
0.227,0.991,-0.882,-100.342,-89.111,-30.273
0.070,0.843,-0.809,-122.009,-107.788,-43.945
0.078,0.787,-0.876,-126.038,-123.779,-55.481
0.312,1.099,-1.086,-118.408,-136.963,-61.646
0.282,1.101,-0.943,-122.437,-151.672,-75.745
0.083,1.062,-0.639,-125.610,-161.804,-96.436
0.040,1.175,-0.491,-126.648,-161.621,-120.728
0.023,1.281,-0.411,-136.658,-157.959,-152.039
-0.072,1.337,-0.352,-161.194,-156.860,-192.078
-0.197,1.217,-0.336,-204.346,-163.879,-237.366
-0.275,1.042,-0.286,-249.817,-181.702,-281.494
-0.291,0.792,-0.200,-280.396,-203.857,-322.083
-0.257,0.564,-0.042,-296.631,-222.107,-355.286
-0.230,0.372,0.120,-302.185,-228.149,-378.967
-0.228,0.170,0.224,-301.575,-219.177,-395.569
-0.229,-0.078,0.295,-302.307,-201.965,-405.518
-0.213,-0.300,0.316,-294.067,-180.664,-408.752
-0.219,-0.431,0.364,-275.269,-156.738,-408.081
-0.268,-0.468,0.389,-259.277,-131.653,-405.212
-0.317,-0.477,0.341,-252.014,-107.971,-402.527
-0.339,-0.524,0.214,-248.535,-88.562,-399.597
-0.350,-0.579,0.113,-241.516,-75.684,-395.752
-0.352,-0.640,0.045,-226.440,-67.749,-389.709
-0.357,-0.725,-0.022,-203.979,-62.012,-379.700
-0.357,-0.814,-0.089,-174.866,-56.641,-363.647
-0.334,-0.918,-0.085,-139.587,-51.453,-341.675
-0.310,-0.984,-0.005,-102.173,-45.105,-316.284
-0.322,-0.980,0.025,-69.946,-34.790,-290.649
-0.392,-0.958,0.061,-48.218,-22.705,-265.991
-0.486,-0.919,0.053,-38.025,-14.282,-243.835
-0.595,-0.876,0.065,-36.682,-12.634,-225.586
-0.701,-0.831,0.102,-42.419,-16.052,-213.745
-0.779,-0.823,0.146,-50.415,-21.729,-210.510
-0.830,-0.890,0.190,-56.030,-27.649,-213.013
-0.845,-1.017,0.230,-54.504,-31.494,-216.309
-0.832,-1.171,0.285,-42.969,-31.250,-214.417
-0.819,-1.327,0.348,-22.400,-23.987,-205.566
-0.810,-1.438,0.414,5.371,-9.033,-188.721
-0.798,-1.491,0.441,36.560,12.512,-166.870
-0.778,-1.567,0.441,65.735,38.147,-143.616
-0.749,-1.607,0.376,90.210,61.768,-122.375
-0.812,-1.625,0.404,104.980,77.148,-101.440
-0.797,-1.585,0.447,92.712,93.811,-81.177
-0.861,-1.573,0.310,82.336,112.427,-66.467
-0.890,-1.560,0.152,71.899,120.789,-56.702
-0.861,-1.557,0.036,63.416,120.605,-48.218
-0.840,-1.620,0.008,60.364,117.737,-40.955
-0.817,-1.702,0.030,68.298,119.629,-31.250
-0.768,-1.781,0.135,90.515,130.310,-16.602
-0.786,-1.805,0.107,120.056,150.635,2.319
-0.764,-1.834,0.103,141.418,175.171,24.048
-0.730,-1.865,0.165,161.072,195.862,41.870
-0.735,-1.919,0.240,174.988,214.233,58.044
-0.744,-1.962,0.245,170.227,230.957,73.730
-0.736,-1.934,0.166,149.536,242.310,87.463
-0.740,-1.882,0.045,119.446,245.300,98.083
-0.735,-1.831,-0.118,84.351,242.615,107.788
-0.726,-1.776,-0.295,52.307,237.427,116.455
-0.700,-1.729,-0.426,33.508,232.971,122.559
-0.628,-1.654,-0.544,31.433,233.337,125.671
-0.530,-1.586,-0.710,41.504,239.197,127.136
-0.424,-1.547,-0.866,60.425,245.605,128.113
-0.307,-1.551,-0.944,85.388,248.718,129.761
-0.238,-1.575,-0.986,106.934,247.986,134.583
-0.179,-1.602,-1.026,116.821,242.615,142.822
-0.124,-1.635,-1.076,116.821,232.361,152.649
-0.081,-1.651,-1.153,111.755,218.079,163.696
-0.030,-1.627,-1.233,104.858,201.904,176.453
0.003,-1.579,-1.316,99.915,185.181,190.125
0.019,-1.515,-1.396,97.595,169.312,204.163
0.035,-1.427,-1.477,98.938,155.579,218.323
0.046,-1.328,-1.539,103.577,143.372,231.079
0.048,-1.223,-1.590,110.962,130.798,240.906
0.045,-1.135,-1.635,117.981,118.042,247.864
0.029,-1.062,-1.640,125.488,104.126,253.540
0.011,-0.982,-1.637,134.399,90.210,258.423
-0.010,-0.897,-1.651,142.944,77.209,262.756
-0.045,-0.791,-1.669,150.085,63.965,266.602
-0.078,-0.634,-1.656,156.982,48.889,268.127
-0.124,-0.489,-1.650,162.598,32.715,266.235
-0.176,-0.372,-1.645,165.039,14.832,260.559
-0.192,-0.265,-1.629,164.917,-3.906,252.136
-0.190,-0.169,-1.577,163.940,-23.437,240.967
-0.188,-0.086,-1.515,162.170,-42.908,226.868
-0.180,-0.021,-1.442,159.424,-61.401,211.914
-0.178,0.032,-1.352,155.762,-78.979,198.486
-0.164,0.072,-1.255,149.597,-92.896,186.768
-0.157,0.104,-1.173,145.325,-102.173,175.964
-0.148,0.147,-1.136,143.127,-108.398,165.588
-0.154,0.193,-1.085,142.090,-113.281,154.175
-0.159,0.253,-1.011,144.409,-116.760,140.686
-0.151,0.332,-0.932,150.269,-117.859,124.512
-0.136,0.369,-0.855,156.006,-115.112,104.919
-0.108,0.354,-0.783,162.842,-109.558,82.764
-0.067,0.322,-0.725,169.983,-103.882,61.707
-0.010,0.280,-0.695,174.744,-98.938,42.053
0.051,0.212,-0.686,177.917,-95.703,24.597
0.094,0.143,-0.643,181.458,-94.727,12.024
0.123,0.106,-0.581,184.570,-93.872,5.371
0.156,0.099,-0.514,185.547,-90.942,3.174
0.176,0.097,-0.435,183.411,-85.815,3.235
0.161,0.119,-0.388,179.993,-78.308,2.136
0.131,0.175,-0.373,172.913,-68.970,-1.404
0.111,0.237,-0.379,162.964,-59.692,-8.179
0.107,0.268,-0.391,153.076,-52.551,-20.569
0.111,0.256,-0.402,144.409,-48.096,-36.682
0.124,0.212,-0.402,136.902,-45.410,-53.650
0.159,0.155,-0.385,129.517,-43.030,-69.031
0.202,0.076,-0.411,123.169,-40.466,-81.909
0.247,-0.036,-0.434,119.507,-37.415,-91.614
0.294,-0.145,-0.395,121.460,-33.386,-95.581
0.348,-0.236,-0.334,126.648,-25.757,-94.177
0.398,-0.328,-0.297,131.714,-13.733,-89.600
0.436,-0.389,-0.274,135.986,0.244,-82.520
0.442,-0.392,-0.289,139.282,14.771,-73.303
0.422,-0.361,-0.330,138.428,27.466,-62.744
0.388,-0.304,-0.383,132.996,36.743,-52.063
0.358,-0.249,-0.453,122.803,42.236,-43.945
0.354,-0.231,-0.526,108.948,43.518,-41.992
0.363,-0.247,-0.586,95.032,40.955,-46.753
0.386,-0.284,-0.637,84.229,36.438,-55.786
0.430,-0.352,-0.672,75.684,31.433,-64.331
0.494,-0.424,-0.690,68.787,27.954,-67.749
0.547,-0.472,-0.706,64.697,25.879,-64.148
0.571,-0.488,-0.690,61.890,25.208,-53.650
0.573,-0.457,-0.680,59.326,26.184,-38.818
0.561,-0.380,-0.707,57.007,28.503,-23.193
0.552,-0.311,-0.743,55.725,31.067,-9.949
0.550,-0.260,-0.754,56.458,33.020,-1.831
0.548,-0.210,-0.758,58.716,34.729,1.953
0.552,-0.186,-0.759,60.303,36.499,1.831
0.563,-0.177,-0.766,59.753,38.330,0.061

0.722,0.390,-0.873,67.139,4.517,5.920
0.717,0.277,-0.832,57.129,-3.113,11.963
0.717,0.329,-0.798,53.589,-11.963,19.775
0.635,0.333,-0.687,48.279,-15.442,24.231
0.606,0.326,-0.690,40.771,-13.489,24.292
0.636,0.335,-0.761,36.133,-10.864,21.606
0.663,0.282,-0.863,32.776,-11.963,20.142
0.670,0.267,-0.850,32.715,-18.250,21.301
0.678,0.304,-0.899,32.166,-24.048,24.963
0.694,0.323,-1.005,32.288,-29.114,27.832
0.749,0.300,-1.051,41.931,-36.133,29.541
0.794,0.287,-1.046,59.143,-42.603,32.349
0.804,0.291,-1.044,78.491,-46.082,36.194
0.819,0.384,-1.048,99.243,-47.913,37.415
0.827,0.502,-1.086,117.004,-50.842,34.241
0.866,0.546,-1.120,131.104,-58.228,27.161
0.873,0.627,-1.119,147.400,-70.679,20.081
0.869,0.663,-0.985,162.170,-82.581,12.939
0.856,0.703,-0.821,180.054,-91.492,3.174
0.820,0.765,-0.710,200.806,-94.116,-7.568
0.777,0.850,-0.668,219.360,-91.614,-17.639
0.716,0.953,-0.639,238.281,-90.515,-28.870
0.633,1.042,-0.617,258.606,-93.323,-43.823
0.630,1.124,-0.531,279.358,-99.731,-63.538
0.607,1.110,-0.478,297.485,-107.178,-86.792
0.591,0.978,-0.312,313.538,-113.892,-109.863
0.616,0.858,-0.106,333.801,-115.723,-126.953
0.634,0.658,0.105,353.027,-110.229,-137.268
0.687,0.531,0.389,373.474,-96.375,-139.160
0.685,0.538,0.554,395.203,-73.608,-131.348
0.639,0.481,0.600,406.372,-48.157,-117.432
0.610,0.431,0.682,416.077,-27.527,-104.248
0.569,0.406,0.826,430.481,-12.329,-94.788
0.498,0.356,1.092,439.392,0.427,-88.989
0.398,0.312,1.408,435.425,16.785,-84.839
0.326,0.350,1.585,414.062,39.978,-81.238
0.290,0.263,1.719,375.732,67.810,-79.224
0.152,0.419,1.673,320.251,93.750,-78.552
0.063,0.384,1.661,243.530,104.675,-83.496
-0.010,0.368,1.476,191.406,116.394,-91.125
-0.054,0.403,1.293,143.555,137.024,-92.651
-0.097,0.332,1.052,92.773,145.630,-98.816
-0.013,0.159,0.840,59.204,150.513,-106.689
0.049,0.023,0.678,45.532,156.738,-107.727
0.099,-0.082,0.563,46.875,164.490,-103.027
0.147,-0.152,0.492,58.411,174.927,-92.224
0.185,-0.217,0.450,71.472,187.012,-74.646
0.204,-0.272,0.406,82.275,198.608,-51.636
0.195,-0.303,0.371,88.074,207.642,-23.499
0.159,-0.300,0.369,89.600,213.562,7.080
0.082,-0.246,0.362,84.961,217.712,38.818
-0.007,-0.133,0.289,71.838,221.375,69.214
-0.089,-0.002,0.169,51.880,223.267,93.323
-0.174,0.129,0.058,31.921,221.985,107.605
-0.259,0.222,-0.016,14.282,219.482,112.915
-0.337,0.272,-0.078,-1.221,217.529,113.525
-0.393,0.294,-0.138,-15.198,216.614,112.488
-0.425,0.284,-0.186,-27.344,216.431,112.061
-0.453,0.266,-0.198,-36.926,217.529,113.525
-0.491,0.261,-0.195,-45.715,222.595,116.943
-0.533,0.256,-0.216,-54.260,233.826,121.521
-0.571,0.253,-0.316,-64.209,249.939,125.000
-0.592,0.271,-0.493,-74.890,266.968,125.854
-0.592,0.287,-0.742,-86.914,278.625,123.474
-0.584,0.297,-1.008,-99.670,278.076,118.713
-0.551,0.304,-1.204,-107.117,264.343,113.464
-0.507,0.284,-1.314,-106.201,243.103,110.535
-0.456,0.259,-1.365,-97.839,221.313,110.840
-0.424,0.231,-1.406,-83.557,204.224,114.319
-0.417,0.207,-1.444,-68.787,193.604,119.751
-0.415,0.192,-1.488,-56.152,188.232,124.451
-0.381,0.145,-1.524,-41.931,186.768,127.441
-0.370,0.179,-1.632,-22.461,188.232,130.798
-0.329,0.085,-1.677,-13.428,181.824,134.155
-0.320,0.031,-1.668,0.061,170.105,142.029
-0.323,0.060,-1.659,8.911,159.241,159.058
-0.355,0.054,-1.685,10.498,148.926,176.514
-0.390,0.041,-1.709,11.292,138.367,190.979
-0.411,0.068,-1.706,14.221,127.991,202.576
-0.430,0.089,-1.690,17.578,117.554,210.327
-0.440,0.082,-1.702,18.433,107.178,215.637
-0.456,0.054,-1.717,15.015,96.191,221.680
-0.474,0.055,-1.730,8.484,84.778,229.797
-0.498,0.054,-1.753,-0.122,72.754,239.197
-0.544,0.033,-1.784,-8.850,59.937,248.108
-0.596,-0.006,-1.792,-13.550,46.936,258.423
-0.630,0.001,-1.766,-10.132,35.767,271.423
-0.676,0.047,-1.711,-2.930,25.574,285.950
-0.728,0.054,-1.638,4.089,16.113,300.110
-0.791,0.021,-1.546,15.259,10.132,314.697
-0.873,0.056,-1.544,32.837,11.902,333.252
-0.900,0.300,-1.576,37.292,11.902,353.394
-1.024,0.293,-1.596,12.268,-5.249,361.633
-1.099,0.280,-1.577,-4.456,-24.414,364.868
-1.111,0.372,-1.618,-17.273,-33.752,369.934
-1.157,0.436,-1.712,-30.334,-35.767,374.023
-1.214,0.443,-1.814,-40.527,-40.039,374.207
-1.236,0.454,-1.887,-37.354,-48.340,372.375
-1.240,0.479,-1.911,-22.583,-58.472,369.751
-1.239,0.513,-1.867,-2.075,-69.580,365.845
-1.244,0.528,-1.795,19.592,-79.773,360.901
-1.268,0.568,-1.682,34.973,-88.074,356.262
-1.304,0.686,-1.578,39.795,-94.421,351.624
-1.319,0.773,-1.557,31.433,-100.037,344.116
-1.289,0.805,-1.570,13.367,-108.093,331.116
-1.232,0.837,-1.562,-6.775,-119.568,315.491
-1.180,0.866,-1.557,-31.921,-132.507,302.002
-1.162,0.940,-1.572,-64.270,-146.179,292.603
-1.140,1.022,-1.610,-94.543,-158.813,282.471
-1.101,1.021,-1.655,-114.441,-168.091,268.433
-1.053,0.971,-1.643,-120.117,-172.913,253.113
-1.001,0.958,-1.622,-115.906,-170.898,241.333
-0.968,0.959,-1.714,-107.178,-162.903,231.201
-0.952,1.009,-1.820,-90.637,-154.419,220.032
-0.932,1.113,-1.883,-62.683,-149.414,203.369
-0.918,1.172,-1.881,-32.715,-148.560,179.871
-0.916,1.198,-1.794,-7.935,-151.794,152.283
-0.890,1.167,-1.736,4.883,-156.738,123.535
-0.836,1.060,-1.693,5.127,-163.269,94.910
-0.794,0.989,-1.640,-3.723,-173.523,67.139
-0.807,0.965,-1.590,-23.804,-187.683,41.260
-0.806,0.998,-1.557,-57.617,-205.688,17.029
-0.790,1.032,-1.551,-99.426,-226.501,-9.521
-0.757,0.993,-1.511,-146.362,-250.305,-36.804
-0.684,0.884,-1.462,-191.589,-275.879,-59.998
-0.579,0.741,-1.398,-229.370,-298.584,-75.317
-0.477,0.565,-1.397,-256.470,-313.599,-79.895
-0.349,0.385,-1.415,-269.287,-320.618,-74.463
-0.247,0.253,-1.379,-261.108,-319.763,-59.814
-0.194,0.161,-1.315,-237.610,-310.425,-41.138
-0.153,0.089,-1.215,-207.458,-294.495,-23.743
-0.136,0.050,-1.127,-176.453,-274.536,-7.568
-0.125,0.080,-1.082,-150.635,-254.761,7.263
-0.095,0.154,-1.055,-133.240,-238.464,19.714
-0.085,0.188,-1.015,-122.192,-228.333,26.184
-0.082,0.191,-0.978,-117.188,-224.976,27.222
-0.057,0.199,-0.936,-116.699,-226.196,26.306
-0.032,0.185,-0.861,-115.906,-228.577,25.391
-0.020,0.150,-0.766,-111.206,-228.027,25.208
-0.009,0.136,-0.706,-106.567,-222.534,26.123
0.011,0.120,-0.673,-105.103,-213.379,26.917
0.047,0.104,-0.664,-101.868,-202.942,26.306
0.073,0.088,-0.677,-92.773,-193.237,23.865
0.085,0.059,-0.698,-78.918,-184.937,20.508
0.110,0.025,-0.670,-62.195,-178.284,17.578
0.125,-0.004,-0.611,-44.434,-171.448,14.587
0.141,-0.003,-0.575,-31.433,-164.124,11.597
0.171,-0.020,-0.558,-22.461,-158.020,5.554
0.192,-0.030,-0.489,-11.841,-154.480,-1.404

0.631,-0.099,-0.907,-28.198,-22.217,-25.635
0.780,-0.183,-0.671,-21.484,-27.039,-22.217
0.799,-0.189,-0.645,-14.282,-27.283,-13.245
0.793,-0.171,-0.611,-15.991,-23.926,-0.793
0.753,-0.072,-0.544,-14.893,-21.912,11.597
0.736,-0.003,-0.499,-17.029,-18.494,17.517
0.746,0.008,-0.520,-19.470,-13.428,18.494
0.816,-0.000,-0.604,-21.362,-9.705,17.151
0.850,-0.008,-0.667,-24.292,-10.315,16.663
0.871,0.042,-0.648,-27.527,-15.991,17.761
0.886,0.131,-0.615,-36.804,-22.461,17.883
0.890,0.129,-0.660,-51.025,-26.306,15.076
0.947,0.097,-0.711,-59.631,-31.433,9.460
0.991,0.037,-0.689,-60.242,-38.818,5.249
0.998,0.087,-0.615,-55.969,-45.288,6.531
0.948,0.126,-0.489,-51.514,-47.974,10.437
0.873,0.335,-0.521,-46.021,-46.387,10.071
0.805,0.496,-0.530,-49.988,-42.480,1.282
0.635,0.444,-0.687,-59.448,-36.987,-14.648
0.567,0.420,-0.838,-71.472,-36.133,-29.785
0.824,0.507,-0.713,-70.435,-44.495,-41.321
0.917,0.637,-0.548,-61.157,-52.490,-57.739
0.771,0.684,-0.378,-68.665,-53.223,-78.857
0.584,0.694,-0.345,-92.102,-48.828,-99.304
0.507,0.692,-0.448,-119.812,-45.715,-116.943
0.417,0.705,-0.436,-139.954,-49.133,-134.033
0.262,0.775,-0.239,-153.015,-54.016,-155.090
0.113,0.800,-0.105,-176.941,-55.115,-183.044
-0.008,0.738,-0.151,-220.581,-57.007,-217.224
-0.097,0.627,-0.246,-265.015,-66.956,-253.723
-0.098,0.485,-0.269,-294.861,-84.290,-286.926
-0.211,0.216,-0.312,-303.162,-100.037,-314.087
-0.156,0.052,-0.215,-293.457,-109.619,-330.139
-0.220,-0.174,-0.132,-273.621,-109.558,-338.013
-0.298,-0.299,-0.108,-255.615,-100.830,-340.698
-0.421,-0.380,-0.108,-241.516,-90.881,-340.881
-0.557,-0.451,-0.129,-227.173,-84.595,-341.797
-0.644,-0.528,-0.115,-210.266,-83.435,-344.849
-0.660,-0.579,-0.110,-189.819,-85.327,-348.877
-0.604,-0.622,-0.119,-164.734,-88.135,-351.868
-0.598,-0.757,-0.145,-136.658,-92.285,-348.877
-0.618,-0.907,-0.147,-106.018,-98.633,-336.365
-0.636,-1.001,-0.092,-73.303,-105.652,-314.209
-0.662,-1.049,0.024,-42.419,-110.596,-287.720
-0.707,-1.064,0.195,-16.052,-110.657,-262.695
-0.759,-1.041,0.330,3.662,-104.492,-241.760
-0.806,-0.977,0.383,14.648,-94.482,-225.220
-0.843,-0.921,0.374,18.494,-85.815,-213.074
-0.853,-0.862,0.377,19.836,-81.970,-203.308
-0.862,-0.832,0.382,18.372,-80.994,-194.214
-1.000,-0.879,0.392,20.935,-84.595,-188.416
-0.818,-0.755,0.486,17.395,-85.327,-179.993
-0.894,-0.783,0.450,20.508,-73.242,-169.067
-0.794,-0.709,0.299,27.405,-62.195,-161.133
-0.843,-0.738,0.268,43.701,-58.777,-158.203
-0.813,-0.770,0.253,62.073,-59.204,-156.006
-0.781,-0.832,0.243,85.571,-59.937,-152.344
-0.796,-0.914,0.268,116.882,-59.753,-147.827
-0.789,-1.035,0.260,151.245,-53.528,-139.343
-0.806,-1.153,0.205,193.726,-41.687,-124.756
-0.797,-1.234,0.234,237.305,-30.518,-105.957
-0.782,-1.355,0.308,273.010,-17.090,-84.473
-0.795,-1.404,0.398,307.556,1.343,-62.866
-0.807,-1.445,0.414,331.970,25.513,-42.664
-0.817,-1.456,0.385,344.299,50.842,-23.010
-0.870,-1.446,0.375,349.365,74.524,-4.272
-0.927,-1.408,0.307,348.206,97.473,14.038
-0.982,-1.337,0.179,339.294,118.530,30.273
-1.032,-1.270,0.015,324.524,137.085,40.588
-1.049,-1.240,-0.181,312.866,153.259,44.128
-1.042,-1.277,-0.372,302.856,165.405,44.128
-0.983,-1.389,-0.545,296.997,172.302,42.542
-0.891,-1.551,-0.685,292.419,173.706,45.349
-0.796,-1.742,-0.745,287.903,171.082,57.617
-0.688,-1.894,-0.842,288.757,167.847,80.383
-0.667,-1.869,-0.719,291.992,162.354,112.061
-0.620,-1.970,-0.676,268.921,171.631,144.470
-0.600,-2.008,-0.829,271.973,191.711,170.227
-0.583,-1.911,-0.986,282.776,201.111,197.205
-0.582,-1.806,-1.151,279.175,199.646,227.478
-0.587,-1.692,-1.255,267.700,191.528,257.446
-0.602,-1.529,-1.329,259.155,181.641,283.264
-0.626,-1.379,-1.427,251.953,173.401,301.208
-0.637,-1.223,-1.563,244.141,165.466,313.599
-0.632,-1.076,-1.726,235.291,155.029,322.266
-0.605,-0.956,-1.912,224.121,140.076,327.698
-0.569,-0.884,-2.069,211.853,119.019,331.177
-0.532,-0.814,-2.151,201.843,93.628,333.252
-0.499,-0.727,-2.189,197.510,68.176,333.130
-0.502,-0.638,-2.196,195.068,45.349,332.214
-0.519,-0.541,-2.195,192.383,25.879,332.275
-0.530,-0.438,-2.190,189.758,8.667,333.130
-0.575,-0.322,-2.174,189.880,-6.531,333.984
-0.645,-0.149,-2.093,195.129,-20.142,331.970
-0.718,0.019,-2.009,203.308,-30.029,323.669
-0.769,0.146,-1.957,212.524,-35.767,307.007
-0.801,0.252,-1.964,225.586,-40.405,284.485
-0.832,0.348,-1.971,237.976,-48.340,260.925
-0.869,0.424,-1.937,247.192,-60.547,241.760
-0.910,0.497,-1.869,252.502,-75.867,226.929
-0.938,0.566,-1.781,254.944,-92.590,212.952
-0.948,0.604,-1.639,255.554,-109.192,196.594
-0.950,0.613,-1.484,255.981,-122.803,176.758
-0.950,0.613,-1.379,253.723,-132.385,158.936
-0.934,0.619,-1.263,249.451,-139.954,146.667
-0.918,0.675,-1.143,248.291,-144.775,138.123
-0.925,0.726,-1.035,247.375,-147.278,129.395
-0.929,0.733,-0.933,244.812,-148.315,119.324
-0.912,0.731,-0.836,241.394,-147.156,107.971
-0.916,0.729,-0.773,237.549,-143.127,96.497
-0.909,0.733,-0.748,231.323,-136.841,85.205
-0.875,0.773,-0.713,224.792,-130.737,72.021
-0.847,0.824,-0.647,220.703,-126.099,54.565
-0.837,0.850,-0.557,216.064,-123.352,31.494
-0.828,0.857,-0.451,208.008,-121.277,4.395
-0.824,0.847,-0.358,196.228,-118.713,-23.804
-0.798,0.818,-0.297,178.711,-115.784,-52.002
-0.735,0.769,-0.269,158.997,-112.183,-77.087
-0.670,0.706,-0.242,141.541,-108.093,-98.145
-0.608,0.619,-0.192,127.380,-103.088,-114.990
-0.543,0.526,-0.144,117.493,-96.497,-129.211
-0.469,0.434,-0.104,110.718,-87.646,-141.541
-0.402,0.335,-0.090,105.530,-77.698,-152.710
-0.336,0.236,-0.064,99.915,-67.261,-161.377
-0.276,0.160,-0.024,94.116,-55.847,-167.480
-0.223,0.108,-0.001,89.294,-42.603,-172.363
-0.180,0.057,-0.006,85.083,-28.381,-175.476
-0.151,-0.003,-0.001,82.520,-13.855,-176.758
-0.127,-0.038,-0.024,83.740,0.244,-176.514
-0.085,-0.034,-0.068,88.318,14.587,-177.124
-0.023,-0.013,-0.125,92.163,29.297,-181.274
0.033,-0.039,-0.224,92.896,43.091,-189.209
0.103,-0.114,-0.346,91.370,54.199,-198.242
0.193,-0.232,-0.460,89.905,61.768,-205.200
0.314,-0.356,-0.536,92.224,65.308,-208.984
0.425,-0.456,-0.572,98.022,65.979,-208.130
0.500,-0.525,-0.536,101.807,65.918,-201.538
0.543,-0.547,-0.510,98.877,67.749,-187.195
0.578,-0.546,-0.539,86.975,71.655,-166.199
0.625,-0.538,-0.636,68.237,75.073,-141.541
0.667,-0.524,-0.772,49.500,74.951,-115.845
0.693,-0.462,-0.896,35.706,69.336,-91.309
0.714,-0.383,-0.977,26.001,59.509,-70.740
0.730,-0.322,-1.030,19.165,48.767,-54.626
0.749,-0.285,-1.030,17.334,38.940,-42.297
0.751,-0.249,-0.976,19.165,31.982,-32.471
0.737,-0.209,-0.905,21.912,29.053,-24.780
0.738,-0.158,-0.857,23.682,30.151,-18.372
0.743,-0.081,-0.832,23.865,34.363,-12.085

0.682,0.521,-0.536,69.275,14.221,16.541
0.634,0.629,-0.493,47.668,6.165,23.254
0.594,0.737,-0.467,29.114,1.099,22.278
0.552,0.745,-0.493,8.240,-2.136,14.954
0.575,0.772,-0.546,-8.972,-6.531,5.920
0.577,0.732,-0.589,-19.531,-12.207,-2.380
0.602,0.683,-0.594,-20.935,-17.639,-7.080
0.625,0.619,-0.581,-14.832,-19.165,-8.179
0.658,0.547,-0.585,-4.211,-17.273,-5.737
0.690,0.513,-0.548,11.353,-14.282,0.488
0.707,0.503,-0.465,28.870,-10.132,9.644
0.721,0.542,-0.444,43.213,-3.540,19.470
0.700,0.569,-0.473,47.119,2.808,28.564
0.645,0.608,-0.558,45.288,4.333,35.217
0.613,0.710,-0.510,44.922,3.845,39.001
0.599,0.816,-0.507,41.992,1.099,36.133
0.632,0.934,-0.517,43.213,-1.221,25.635
0.577,1.020,-0.559,45.715,-1.892,9.583
0.393,0.984,-0.773,56.702,-4.456,-5.310
0.597,1.033,-0.868,86.365,-14.526,-14.832
0.929,1.183,-0.658,132.629,-28.198,-23.193
1.006,1.178,-0.421,174.927,-30.823,-35.034
0.866,0.975,-0.386,202.332,-23.132,-44.739
0.829,0.860,-0.212,231.934,-12.207,-44.006
0.804,0.973,-0.094,268.433,0.305,-40.161
0.713,1.049,-0.070,300.720,15.747,-40.833
0.642,1.024,-0.036,323.547,28.564,-44.861
0.599,0.982,0.016,344.971,35.583,-51.575
0.548,0.926,0.118,366.699,37.720,-60.059
0.488,0.817,0.242,383.362,37.231,-70.129
0.429,0.669,0.393,393.677,36.316,-80.322
0.355,0.533,0.523,397.278,36.987,-87.830
0.277,0.402,0.650,394.775,38.757,-92.346
0.209,0.262,0.784,387.451,42.542,-94.666
0.137,0.121,0.880,373.901,50.110,-94.238
0.060,-0.023,0.949,354.492,60.730,-90.149
-0.028,-0.165,1.019,333.618,72.205,-81.665
-0.111,-0.276,1.079,312.683,87.097,-68.420
-0.170,-0.355,1.118,290.833,106.079,-51.636
-0.205,-0.404,1.137,265.320,129.578,-30.945
-0.228,-0.387,1.088,230.774,155.518,-6.348
-0.283,-0.377,0.932,184.448,179.443,21.606
-0.361,-0.368,0.715,127.258,194.214,52.185
-0.438,-0.359,0.516,69.092,197.021,82.642
-0.512,-0.347,0.371,16.479,191.956,111.633
-0.600,-0.317,0.263,-26.550,185.364,139.832
-0.694,-0.239,0.208,-59.448,182.800,166.260
-0.788,-0.135,0.143,-84.656,188.477,189.392
-0.864,-0.052,0.036,-106.995,203.125,206.970
-0.920,-0.003,-0.126,-124.451,222.107,218.872
-0.974,0.059,-0.313,-135.620,239.014,225.159
-1.017,0.152,-0.475,-140.076,249.817,227.661
-1.043,0.251,-0.605,-140.991,256.592,227.173
-1.020,0.293,-0.746,-137.390,261.780,223.755
-0.967,0.242,-0.880,-127.380,265.381,220.764
-0.862,0.239,-1.099,-104.248,263.916,222.534
-0.839,0.222,-0.876,-87.830,248.962,233.154
-0.865,0.201,-1.025,-110.596,245.728,244.812
-0.907,0.141,-1.172,-109.314,244.141,254.944
-0.901,0.074,-1.360,-122.192,235.107,272.583
-0.912,0.128,-1.530,-132.202,220.886,294.617
-0.986,0.211,-1.728,-142.761,203.552,313.904
-1.072,0.266,-1.959,-151.550,184.143,325.745
-1.134,0.357,-2.079,-140.320,159.668,328.979
-1.144,0.442,-2.079,-114.197,132.935,324.890
-1.143,0.466,-2.070,-85.449,108.643,319.153
-1.169,0.434,-2.030,-58.411,84.351,319.092
-1.214,0.428,-1.893,-36.804,60.364,328.674
-1.292,0.352,-1.852,-27.649,43.640,346.313
-1.365,0.402,-1.872,-11.963,35.522,371.948
-1.501,0.580,-1.896,-0.305,26.184,398.193
-1.685,0.661,-1.942,-8.118,6.348,415.222
-1.779,0.787,-2.000,-23.010,-21.484,427.673
-1.861,0.945,-2.066,-32.837,-48.279,433.838
-1.972,1.090,-2.111,-34.363,-71.045,428.833
-2.005,1.213,-2.118,-30.457,-91.431,413.147
-1.950,1.227,-2.106,-19.470,-109.802,388.794
-1.845,1.142,-2.041,2.502,-124.817,358.765
-1.720,0.981,-1.950,32.104,-135.681,329.773
-1.615,0.804,-1.863,61.707,-142.822,308.167
-1.600,0.717,-1.750,88.013,-148.560,296.082
-1.626,0.776,-1.589,106.506,-152.954,290.344
-1.663,0.889,-1.445,108.032,-155.457,286.255
-1.695,1.016,-1.370,91.187,-157.776,281.799
-1.667,1.160,-1.393,64.087,-161.194,276.001
-1.623,1.329,-1.426,41.992,-166.809,265.137
-1.579,1.451,-1.462,33.752,-173.462,245.361
-1.532,1.488,-1.491,34.729,-180.176,217.773
-1.454,1.474,-1.475,40.161,-186.829,187.317
-1.377,1.428,-1.459,46.143,-192.139,159.058
-1.317,1.362,-1.430,46.265,-196.899,134.827
-1.257,1.295,-1.381,42.542,-201.965,114.563
-1.172,1.226,-1.347,35.278,-207.092,97.412
-1.089,1.144,-1.351,25.269,-210.937,83.191
-1.019,1.073,-1.370,18.433,-214.355,72.937
-0.970,0.991,-1.378,18.982,-217.834,65.613
-0.939,0.930,-1.336,27.954,-219.971,60.730
-0.901,0.881,-1.248,44.006,-219.482,57.800
-0.869,0.812,-1.185,62.012,-215.332,56.946
-0.847,0.714,-1.207,75.989,-209.229,61.157
-0.889,0.658,-1.211,88.013,-206.055,69.519
-0.955,0.644,-1.154,99.365,-206.726,75.623
-1.032,0.709,-1.047,104.675,-209.167,78.308
-1.091,0.805,-0.962,102.722,-211.365,76.416
-1.115,0.865,-0.929,95.276,-213.440,68.115
-1.112,0.876,-0.892,90.454,-215.210,55.725
-1.111,0.860,-0.842,91.919,-215.759,43.640
-1.107,0.840,-0.794,95.520,-212.708,33.997
-1.087,0.848,-0.724,99.182,-205.627,28.198
-1.065,0.856,-0.648,102.905,-195.374,22.766
-1.037,0.838,-0.612,106.323,-183.228,14.709
-1.015,0.807,-0.596,109.131,-170.837,4.578
-0.978,0.796,-0.571,113.708,-158.325,-4.456
-0.921,0.801,-0.579,118.896,-145.081,-12.146
-0.867,0.796,-0.625,124.207,-130.859,-19.165
-0.819,0.782,-0.655,133.423,-116.455,-26.184
-0.802,0.779,-0.619,149.963,-102.722,-34.729
-0.791,0.828,-0.551,171.204,-86.792,-45.959
-0.757,0.888,-0.479,183.594,-71.167,-60.364
-0.733,0.878,-0.422,183.533,-59.448,-77.942
-0.704,0.849,-0.406,178.589,-51.025,-97.656
-0.653,0.800,-0.408,166.748,-46.082,-116.394
-0.603,0.741,-0.399,154.907,-44.250,-132.141
-0.538,0.696,-0.365,147.217,-42.480,-144.958
-0.480,0.662,-0.313,139.099,-39.795,-155.518
-0.434,0.631,-0.312,128.723,-36.255,-163.574
-0.382,0.605,-0.322,116.699,-34.485,-169.922
-0.345,0.581,-0.302,107.727,-34.729,-175.354
-0.334,0.550,-0.242,100.159,-35.156,-179.932
-0.319,0.524,-0.175,90.881,-33.630,-183.472
-0.290,0.516,-0.112,78.918,-28.564,-186.462
-0.257,0.510,-0.079,65.796,-20.142,-189.758
-0.225,0.494,-0.117,53.162,-8.972,-195.068
-0.193,0.457,-0.195,43.152,2.319,-201.721
-0.160,0.407,-0.267,37.903,11.780,-208.557
-0.112,0.349,-0.321,37.598,18.372,-215.637
-0.069,0.290,-0.360,39.429,23.499,-223.267
-0.028,0.236,-0.393,41.809,27.344,-230.408
0.021,0.166,-0.401,43.030,30.396,-236.755
0.070,0.092,-0.383,42.847,32.349,-241.211
0.114,0.025,-0.365,39.612,34.485,-241.577
0.148,-0.038,-0.349,31.982,36.377,-238.403
0.168,-0.105,-0.346,19.775,37.720,-232.727
0.183,-0.128,-0.356,4.333,38.330,-225.342
0.200,-0.119,-0.400,-11.719,37.781,-217.529
0.225,-0.117,-0.483,-27.222,35.706,-210.510
0.262,-0.171,-0.568,-38.025,30.701,-203.552
0.323,-0.259,-0.609,-41.016,23.621,-195.557
0.382,-0.343,-0.602,-37.170,17.029,-185.181

0.544,-0.429,-0.516,-32.654,-11.475,-72.754
0.518,-0.480,-0.469,-31.189,-11.108,-70.740
0.629,-0.544,-0.411,-34.363,-13.245,-63.965
0.606,-0.484,-0.410,-38.208,-7.263,-54.443
0.582,-0.464,-0.420,-46.936,-6.409,-49.255
0.610,-0.425,-0.367,-56.458,-8.789,-50.720
0.628,-0.403,-0.308,-69.397,-11.292,-56.396
0.648,-0.395,-0.280,-88.867,-11.719,-64.026
0.691,-0.414,-0.363,-111.816,-11.902,-72.144
0.755,-0.445,-0.466,-130.005,-16.052,-80.261
0.759,-0.481,-0.481,-142.883,-24.902,-86.792
0.729,-0.468,-0.460,-152.527,-34.302,-91.431
0.690,-0.423,-0.464,-160.950,-42.053,-95.642
0.654,-0.398,-0.520,-170.959,-51.819,-102.478
0.649,-0.369,-0.621,-182.617,-68.970,-112.061
0.687,-0.397,-0.543,-190.918,-94.299,-123.291
0.538,-0.336,-0.454,-194.824,-117.981,-134.827
0.476,-0.330,-0.337,-197.327,-139.893,-146.179
0.449,-0.385,-0.111,-191.223,-149.475,-155.396
0.304,-0.542,0.117,-173.279,-144.104,-163.391
0.289,-0.530,0.129,-147.705,-120.300,-165.649
0.337,-0.441,-0.016,-135.559,-87.830,-163.818
0.279,-0.437,-0.231,-137.146,-62.439,-166.260
0.215,-0.436,-0.413,-131.531,-53.955,-172.424
0.151,-0.400,-0.494,-111.755,-61.707,-178.955
0.076,-0.365,-0.499,-88.684,-78.247,-183.411
-0.005,-0.332,-0.497,-68.298,-97.473,-185.974
-0.076,-0.338,-0.427,-49.011,-116.394,-187.683
-0.163,-0.481,-0.178,-24.170,-130.859,-190.491
-0.224,-0.608,0.092,9.766,-131.958,-190.002
-0.204,-0.587,0.217,40.283,-113.159,-181.335
-0.203,-0.552,0.179,49.622,-81.299,-167.725
-0.236,-0.551,0.062,46.814,-50.720,-155.151
-0.261,-0.565,-0.030,51.697,-31.067,-146.851
-0.267,-0.584,-0.066,66.956,-22.644,-142.761
-0.264,-0.616,-0.024,85.144,-21.362,-140.808
-0.260,-0.639,0.024,98.450,-21.118,-139.099
-0.237,-0.654,0.045,103.210,-19.348,-134.949
-0.221,-0.670,0.041,100.708,-15.991,-128.784
-0.207,-0.667,0.049,94.543,-11.353,-120.789
-0.222,-0.658,0.048,84.167,-5.920,-110.901
-0.255,-0.611,-0.013,69.641,0.061,-101.318
-0.309,-0.597,-0.109,55.603,4.700,-94.421
-0.378,-0.605,-0.201,50.476,6.348,-89.905
-0.414,-0.632,-0.257,56.763,6.042,-88.379
-0.438,-0.703,-0.267,74.829,5.798,-90.271
-0.509,-0.690,-0.212,102.905,9.705,-94.849
-0.502,-0.800,-0.177,125.366,16.479,-101.929
-0.504,-0.873,-0.126,154.907,28.015,-108.398
-0.516,-0.938,-0.098,180.054,44.434,-110.168
-0.545,-1.041,-0.092,193.787,60.181,-106.323
-0.602,-1.156,-0.101,199.402,70.801,-96.130
-0.608,-1.235,-0.136,200.378,77.332,-81.543
-0.584,-1.320,-0.222,195.374,81.238,-65.918
-0.616,-1.378,-0.278,190.674,79.224,-51.758
-0.631,-1.464,-0.294,173.157,76.233,-35.400
-0.617,-1.537,-0.369,163.391,80.627,-18.982
-0.575,-1.638,-0.488,169.373,87.341,-6.226
-0.650,-1.796,-0.553,187.561,92.224,5.005
-0.648,-1.897,-0.552,206.726,101.990,19.165
-0.665,-1.999,-0.535,235.535,119.629,30.457
-0.664,-2.056,-0.499,262.024,137.695,37.415
-0.647,-2.109,-0.603,269.958,155.457,45.105
-0.584,-2.274,-0.765,259.094,165.405,58.777
-0.454,-2.353,-0.959,246.704,168.823,81.482
-0.357,-2.356,-1.156,236.084,165.894,109.131
-0.289,-2.328,-1.303,223.694,155.945,139.038
-0.231,-2.253,-1.385,213.745,143.127,171.753
-0.223,-2.106,-1.489,209.167,131.836,205.872
-0.229,-1.946,-1.591,211.304,121.216,237.854
-0.205,-1.803,-1.612,218.445,109.253,264.343
-0.159,-1.659,-1.584,233.398,97.778,284.973
-0.114,-1.529,-1.570,251.221,88.013,301.025
-0.086,-1.396,-1.562,268.799,79.163,314.880
-0.073,-1.265,-1.525,285.522,70.374,326.172
-0.068,-1.109,-1.464,301.208,62.256,333.374
-0.059,-0.925,-1.421,308.533,54.321,335.205
-0.050,-0.740,-1.434,304.993,44.800,330.933
-0.044,-0.585,-1.476,291.687,30.945,322.449
-0.056,-0.439,-1.514,271.240,10.071,311.646
-0.081,-0.296,-1.544,246.338,-15.137,300.781
-0.104,-0.162,-1.545,218.567,-42.725,289.490
-0.120,-0.043,-1.518,192.139,-68.909,276.794
-0.131,0.052,-1.476,169.556,-89.966,262.451
-0.124,0.133,-1.429,151.123,-105.652,248.779
-0.127,0.188,-1.359,137.939,-116.394,237.305
-0.129,0.251,-1.328,127.991,-123.047,228.821
-0.114,0.330,-1.324,119.934,-127.258,222.900
-0.113,0.399,-1.333,114.319,-132.080,216.980
-0.126,0.462,-1.329,114.197,-138.428,209.534
-0.152,0.523,-1.295,119.507,-145.996,201.111
-0.176,0.567,-1.235,125.122,-153.015,193.115
-0.181,0.615,-1.171,129.028,-157.776,186.462
-0.178,0.664,-1.120,129.578,-160.461,179.138
-0.187,0.693,-1.057,127.869,-162.537,170.593
-0.202,0.736,-0.962,125.427,-164.246,160.950
-0.231,0.794,-0.844,121.765,-164.124,148.132
-0.249,0.829,-0.746,113.281,-161.011,129.822
-0.245,0.824,-0.717,105.835,-154.846,107.239
-0.206,0.802,-0.722,101.135,-147.400,81.909
-0.163,0.776,-0.711,101.685,-140.442,57.129
-0.133,0.727,-0.662,105.286,-134.277,34.424
-0.095,0.678,-0.609,107.727,-128.174,15.076
-0.051,0.620,-0.570,108.643,-121.582,-0.610
-0.010,0.573,-0.527,108.765,-114.990,-12.390
0.029,0.534,-0.480,107.361,-108.521,-21.301
0.063,0.508,-0.452,104.492,-101.990,-28.137
0.090,0.489,-0.427,100.281,-95.886,-33.813
0.111,0.482,-0.387,96.008,-90.332,-39.001
0.121,0.480,-0.333,91.919,-84.778,-44.128
0.142,0.486,-0.302,86.304,-78.186,-49.316
0.171,0.498,-0.316,79.712,-69.946,-54.016
0.193,0.501,-0.342,74.890,-61.707,-57.678
0.210,0.510,-0.338,72.571,-54.871,-60.852
0.224,0.506,-0.307,72.510,-48.279,-64.148
0.243,0.486,-0.277,73.853,-40.161,-67.871
0.269,0.454,-0.273,74.341,-30.701,-72.266
0.302,0.411,-0.288,74.646,-20.874,-76.721
0.333,0.374,-0.311,75.500,-12.451,-80.627
0.353,0.341,-0.335,76.721,-6.470,-83.496
0.361,0.302,-0.332,77.515,-2.563,-84.839
0.359,0.260,-0.292,77.332,0.549,-83.191
0.366,0.263,-0.269,73.303,5.615,-78.064
0.371,0.290,-0.291,64.209,13.062,-71.655
0.360,0.313,-0.342,53.467,20.386,-67.444
0.342,0.319,-0.384,44.983,24.841,-67.383
0.340,0.319,-0.425,39.978,26.855,-70.251
0.359,0.301,-0.453,36.255,26.855,-74.280
0.391,0.258,-0.469,32.959,26.367,-77.515
0.422,0.200,-0.477,29.968,26.245,-79.590
0.449,0.155,-0.486,27.405,26.489,-79.712
0.474,0.128,-0.506,24.475,27.588,-78.003
0.498,0.106,-0.533,21.118,28.564,-75.012
0.513,0.073,-0.542,17.700,28.931,-71.777
0.521,0.054,-0.536,15.015,28.809,-68.054
0.531,0.061,-0.536,11.169,29.358,-64.209
0.546,0.078,-0.585,6.165,30.579,-60.791
0.565,0.070,-0.656,1.770,30.823,-58.044
0.589,0.046,-0.709,0.610,29.114,-54.565
0.612,0.030,-0.728,2.991,26.550,-50.720
0.626,0.026,-0.720,7.812,24.963,-47.119
0.632,0.031,-0.700,12.390,25.330,-44.128
0.636,0.042,-0.693,14.343,27.466,-42.358
0.647,0.056,-0.709,14.221,29.968,-41.992
0.657,0.058,-0.737,13.428,30.823,-42.603
0.672,0.052,-0.749,12.634,29.053,-43.213
0.699,0.032,-0.743,11.719,25.574,-43.152
0.726,0.007,-0.753,9.460,21.912,-41.443
0.748,-0.013,-0.768,6.592,17.944,-37.842

0.707,0.369,-0.603,69.397,23.804,15.259
0.751,0.416,-0.606,66.772,19.043,24.780
0.752,0.570,-0.620,68.115,6.653,32.227
0.643,0.574,-0.483,59.509,-3.967,33.997
0.599,0.570,-0.414,44.495,-6.226,31.189
0.632,0.540,-0.490,31.311,-3.113,26.184
0.684,0.522,-0.582,22.156,-1.831,22.644
0.715,0.505,-0.626,20.935,-4.639,22.827
0.745,0.452,-0.611,26.489,-8.728,25.696
0.742,0.493,-0.493,38.635,-11.292,31.860
0.719,0.524,-0.380,53.284,-7.690,39.612
0.734,0.533,-0.343,70.862,1.709,46.143
0.754,0.554,-0.320,93.689,14.709,52.795
0.750,0.577,-0.298,118.835,26.794,61.279
0.723,0.637,-0.268,146.057,35.706,70.679
0.653,0.781,-0.204,171.631,40.894,79.346
0.581,0.826,-0.157,189.270,43.274,83.496
0.495,0.960,-0.080,207.336,45.471,86.365
0.384,0.946,0.087,226.135,51.514,85.449
0.282,0.903,0.383,242.432,60.303,78.735
0.220,0.888,0.549,249.268,78.735,71.472
0.179,0.893,0.546,243.530,103.455,67.139
0.120,0.883,0.506,234.802,123.169,65.125
0.057,0.889,0.479,229.431,135.315,63.843
-0.041,0.855,0.539,223.694,142.944,60.120
-0.187,0.799,0.591,213.745,150.879,52.917
-0.204,0.741,0.680,198.975,161.255,44.800
-0.223,0.649,0.696,181.519,175.354,36.987
-0.274,0.528,0.606,160.034,191.345,32.166
-0.302,0.416,0.490,137.329,203.247,32.043
-0.317,0.330,0.340,116.089,209.290,35.828
-0.325,0.264,0.195,97.534,210.632,42.236
-0.325,0.219,0.062,83.374,209.106,50.415
-0.358,0.160,0.024,72.449,206.238,61.340
-0.384,0.184,-0.025,61.279,204.956,74.463
-0.412,0.233,-0.087,44.800,205.627,85.754
-0.432,0.277,-0.195,24.780,207.153,93.689
-0.415,0.334,-0.401,0.732,207.458,99.670
-0.366,0.379,-0.671,-23.926,203.735,103.882
-0.303,0.408,-0.962,-40.100,194.275,106.262
-0.241,0.370,-1.156,-44.373,179.260,107.056
-0.181,0.333,-1.280,-36.011,161.011,110.046
-0.131,0.290,-1.303,-18.921,142.090,117.065
-0.122,0.249,-1.243,0.671,124.084,128.296
-0.153,0.255,-1.133,19.470,108.643,145.142
-0.220,0.319,-1.050,28.564,95.764,165.527
-0.295,0.410,-1.047,23.560,85.388,184.570
-0.362,0.555,-1.121,10.254,76.355,200.134
-0.409,0.707,-1.265,-5.310,66.650,207.642
-0.428,0.815,-1.392,-14.160,53.711,205.627
-0.426,0.873,-1.416,-13.428,38.025,196.594
-0.411,0.865,-1.399,-6.958,22.583,184.753
-0.398,0.793,-1.394,-0.916,9.705,174.683
-0.388,0.747,-1.366,3.906,-1.465,171.448
-0.389,0.727,-1.343,5.615,-11.475,173.889
-0.418,0.703,-1.326,2.869,-21.118,178.284
-0.460,0.693,-1.333,-3.967,-30.579,183.594
-0.495,0.731,-1.377,-13.489,-39.917,190.247
-0.548,0.789,-1.434,-25.940,-51.453,198.181
-0.595,0.830,-1.537,-38.818,-65.613,205.688
-0.650,0.847,-1.609,-44.922,-82.214,212.646
-0.738,0.855,-1.597,-44.800,-99.792,223.267
-0.781,0.979,-1.595,-33.325,-111.328,238.770
-0.939,1.176,-1.537,-26.611,-119.507,251.587
-1.036,1.336,-1.566,-27.588,-130.188,256.470
-1.111,1.505,-1.589,-21.179,-138.916,250.061
-1.155,1.639,-1.548,-1.282,-145.508,231.140
-1.144,1.648,-1.494,24.170,-149.048,203.979
-1.142,1.578,-1.349,50.720,-152.100,179.565
-1.143,1.534,-1.158,72.571,-154.663,164.551
-1.139,1.606,-0.977,82.397,-155.029,159.851
-1.145,1.753,-0.895,78.857,-154.480,157.471
-1.161,1.916,-0.908,68.481,-156.555,149.414
-1.208,2.026,-0.901,59.937,-164.246,134.644
-1.259,2.076,-0.842,53.650,-175.720,114.380
-1.291,2.104,-0.788,44.922,-187.073,91.553
-1.338,2.075,-0.735,35.095,-196.777,69.275
-1.355,2.003,-0.678,24.902,-205.139,49.072
-1.351,1.936,-0.673,17.639,-211.304,32.532
-1.375,1.868,-0.649,16.724,-215.088,19.348
-1.416,1.804,-0.544,25.269,-215.515,6.592
-1.468,1.793,-0.409,39.429,-210.876,-7.874
-1.509,1.802,-0.283,50.781,-200.745,-26.367
-1.536,1.768,-0.201,57.556,-188.721,-50.232
-1.528,1.682,-0.127,61.279,-178.467,-77.576
-1.487,1.561,-0.039,62.927,-170.959,-102.295
-1.421,1.412,0.022,59.937,-162.781,-120.605
-1.351,1.264,0.048,53.833,-152.527,-131.042
-1.283,1.141,0.045,49.194,-140.442,-134.949
-1.228,1.042,0.041,48.401,-127.869,-136.108
-1.188,0.991,0.069,50.598,-116.028,-137.268
-1.146,0.973,0.101,51.819,-104.736,-141.052
-1.102,0.950,0.118,49.133,-94.360,-148.315
-1.043,0.891,0.135,43.701,-85.632,-158.386
-0.979,0.800,0.172,38.086,-78.186,-168.335
-0.922,0.715,0.219,33.936,-69.336,-176.453
-0.852,0.642,0.251,29.175,-57.617,-181.702
-0.767,0.598,0.236,24.597,-43.579,-185.608
-0.687,0.541,0.169,20.935,-28.748,-188.538
-0.611,0.432,0.091,18.433,-15.503,-190.002
-0.536,0.341,0.041,17.151,-5.676,-188.721
-0.472,0.277,0.035,15.320,2.319,-184.875
-0.431,0.265,0.017,12.268,9.644,-179.932
-0.388,0.283,0.003,6.165,16.113,-176.086
-0.351,0.286,0.016,0.427,22.095,-174.255
-0.304,0.268,0.015,-5.310,29.480,-174.072
-0.239,0.241,-0.059,-13.550,39.429,-175.232
-0.160,0.150,-0.177,-22.400,49.316,-176.941
-0.072,0.030,-0.272,-26.855,56.335,-177.490
0.017,-0.076,-0.365,-29.480,60.852,-175.049
0.104,-0.175,-0.443,-32.349,63.293,-167.358
0.170,-0.249,-0.513,-34.668,63.660,-154.175
0.235,-0.276,-0.573,-37.231,61.829,-135.925
0.273,-0.220,-0.641,-41.870,58.960,-115.173
0.313,-0.130,-0.747,-50.964,55.115,-96.375
0.349,-0.087,-0.881,-62.378,49.316,-83.862
0.394,-0.083,-0.995,-70.313,41.870,-76.721
0.459,-0.098,-1.066,-70.801,33.691,-71.655
0.517,-0.146,-1.113,-65.613,27.100,-67.078
0.566,-0.224,-1.140,-55.969,22.461,-60.791
0.595,-0.258,-1.136,-44.739,19.226,-50.781
0.583,-0.218,-1.160,-33.936,16.052,-35.828
0.592,-0.103,-1.026,-29.114,11.353,-17.212
0.534,0.018,-0.996,-18.372,7.935,-1.160
0.489,0.163,-0.926,-12.634,5.859,10.559
0.456,0.275,-0.860,-10.376,5.371,15.808
0.444,0.352,-0.801,-6.592,6.653,15.015
0.444,0.385,-0.769,-4.395,8.789,12.329
0.438,0.411,-0.767,-4.822,10.986,11.658
0.422,0.439,-0.789,-7.141,11.719,14.648
0.408,0.463,-0.805,-9.705,10.376,20.630
0.378,0.507,-0.800,-11.292,7.812,27.161
0.338,0.567,-0.800,-12.085,5.798,31.311
0.297,0.606,-0.789,-13.000,5.310,31.982
0.270,0.647,-0.798,-14.465,6.531,29.602
0.261,0.679,-0.826,-15.686,7.874,23.682
0.261,0.666,-0.820,-16.113,8.301,16.968
0.251,0.625,-0.780,-15.991,7.935,12.268
0.231,0.592,-0.759,-17.944,8.423,11.169
0.233,0.589,-0.778,-23.315,9.583,12.329
0.279,0.633,-0.833,-27.710,9.644,13.062
0.297,0.612,-0.854,-26.855,6.958,12.207
0.283,0.558,-0.835,-23.743,2.563,11.536
0.268,0.537,-0.791,-20.874,-1.221,12.878
0.281,0.542,-0.741,-20.569,-2.319,15.503
0.277,0.600,-0.738,-26.306,-2.441,18.433
0.286,0.573,-0.750,-32.104,-3.052,19.714
0.273,0.567,-0.779,-38.513,-3.967,20.874
0.243,0.584,-0.792,-41.992,-5.676,21.606

0.369,0.484,-0.777,0.244,-2.930,-5.737
0.322,0.380,-0.819,-4.944,-2.197,-1.404
0.430,0.474,-0.778,-4.639,-4.822,5.371
0.349,0.519,-0.797,-6.775,-5.066,8.301
0.312,0.555,-0.812,-10.803,-4.639,7.324
0.335,0.582,-0.799,-11.536,-5.981,2.197
0.356,0.599,-0.811,-11.536,-5.676,-4.578
0.352,0.494,-0.826,-11.047,-3.601,-10.620
0.394,0.402,-0.854,-5.615,-2.319,-11.902
0.427,0.380,-0.874,-1.343,-2.075,-6.592
0.405,0.456,-0.871,-0.183,-3.967,2.563
0.372,0.559,-0.857,-3.662,-7.202,9.521
0.358,0.614,-0.855,-10.071,-11.108,9.521
0.409,0.692,-0.837,-15.442,-15.747,4.517
0.411,0.720,-0.874,-21.301,-18.494,-2.991
0.407,0.720,-0.885,-22.705,-21.484,-9.338
0.417,0.767,-0.848,-14.282,-24.658,-13.611
0.443,0.843,-0.832,-3.479,-25.024,-14.771
0.489,0.904,-0.849,4.700,-22.156,-14.587
0.425,0.964,-0.889,10.315,-17.334,-12.268
0.407,1.049,-0.863,14.160,-15.320,-8.423
0.366,1.152,-0.837,15.747,-11.597,-5.859
0.280,1.217,-0.824,14.832,-6.775,-7.080
0.190,1.275,-0.781,17.273,-2.441,-13.977
0.146,1.322,-0.765,24.414,1.892,-26.123
0.131,1.317,-0.745,35.950,6.348,-40.833
0.167,1.291,-0.652,48.096,10.742,-52.063
0.189,1.269,-0.509,59.387,16.785,-57.800
0.128,1.221,-0.358,69.580,26.367,-61.462
0.059,1.192,-0.208,77.209,38.757,-65.491
0.005,1.147,-0.062,80.261,52.734,-70.435
-0.058,1.087,0.017,79.102,66.895,-76.416
-0.133,1.007,0.050,73.730,79.895,-82.397
-0.198,0.901,0.116,62.073,89.111,-89.172
-0.252,0.775,0.157,49.500,95.398,-96.497
-0.316,0.633,0.216,35.339,99.487,-103.577
-0.397,0.481,0.294,20.264,102.417,-109.436
-0.488,0.350,0.340,5.493,106.567,-114.502
-0.534,0.222,0.364,-8.179,112.671,-119.446
-0.546,0.052,0.396,-20.691,120.178,-125.061
-0.554,-0.127,0.382,-28.992,130.249,-130.554
-0.571,-0.277,0.321,-33.997,143.494,-133.850
-0.596,-0.402,0.252,-36.804,156.982,-133.789
-0.633,-0.500,0.205,-37.170,169.617,-130.737
-0.673,-0.533,0.153,-38.757,181.580,-124.573
-0.687,-0.569,0.028,-46.204,191.772,-115.784
-0.647,-0.605,-0.181,-60.852,197.449,-106.445
-0.571,-0.633,-0.433,-78.308,196.289,-97.778
-0.473,-0.691,-0.628,-91.309,188.416,-92.163
-0.385,-0.809,-0.757,-97.290,177.063,-87.830
-0.313,-0.949,-0.888,-98.083,167.419,-79.834
-0.261,-1.066,-0.989,-93.140,161.377,-65.613
-0.251,-1.106,-1.035,-78.979,159.302,-46.448
-0.277,-1.041,-1.023,-54.749,162.476,-24.353
-0.343,-0.925,-1.046,-30.212,171.021,-2.502
-0.415,-0.805,-1.127,-14.038,180.603,17.944
-0.463,-0.699,-1.215,-2.136,185.974,33.203
-0.491,-0.633,-1.288,6.653,185.974,42.419
-0.512,-0.616,-1.321,12.024,182.922,47.485
-0.535,-0.616,-1.325,13.916,178.650,51.697
-0.568,-0.608,-1.350,10.681,174.072,57.617
-0.612,-0.565,-1.406,2.747,168.518,66.895
-0.630,-0.502,-1.503,-8.484,160.156,76.355
-0.626,-0.435,-1.588,-20.142,148.987,82.458
-0.602,-0.398,-1.632,-27.466,136.658,84.473
-0.559,-0.426,-1.638,-31.494,125.000,84.106
-0.527,-0.491,-1.643,-32.104,116.394,83.984
-0.460,-0.591,-1.617,-29.785,112.122,86.609
-0.397,-0.711,-1.551,-22.461,110.291,94.910
-0.402,-0.742,-1.512,-5.249,114.441,108.826
-0.425,-0.693,-1.539,13.977,124.939,125.793
-0.528,-0.593,-1.562,25.024,132.507,144.104
-0.605,-0.516,-1.619,29.602,128.845,162.964
-0.640,-0.366,-1.647,36.438,120.178,181.335
-0.687,-0.236,-1.674,37.415,112.610,193.970
-0.729,-0.142,-1.752,34.302,105.652,200.256
-0.763,-0.067,-1.871,29.175,96.497,203.735
-0.770,0.000,-1.978,20.996,83.801,206.299
-0.762,0.046,-2.057,12.085,67.688,206.909
-0.760,0.051,-2.117,5.310,49.072,205.750
-0.778,0.046,-2.110,3.845,30.640,206.482
-0.802,0.073,-2.066,8.179,15.564,210.571
-0.821,0.103,-2.009,16.174,5.310,213.745
-0.841,0.133,-1.955,25.391,-0.854,214.417
-0.863,0.157,-1.918,33.325,-5.127,213.745
-0.875,0.175,-1.863,38.696,-10.559,212.891
-0.866,0.214,-1.799,39.734,-19.043,212.280
-0.864,0.237,-1.772,35.645,-29.480,211.182
-0.867,0.224,-1.765,29.968,-41.321,210.022
-0.857,0.214,-1.778,25.513,-53.223,210.327
-0.836,0.210,-1.771,23.743,-63.843,211.243
-0.836,0.198,-1.731,26.306,-73.059,211.182
-0.870,0.192,-1.681,32.104,-80.383,210.510
-0.937,0.203,-1.644,39.307,-86.182,209.839
-1.019,0.251,-1.604,48.706,-90.027,209.290
-1.093,0.345,-1.574,59.326,-91.614,208.435
-1.158,0.457,-1.560,68.848,-91.309,206.726
-1.211,0.537,-1.522,77.515,-90.698,201.904
-1.230,0.613,-1.478,83.740,-90.332,193.848
-1.225,0.675,-1.465,85.693,-92.224,184.082
-1.231,0.726,-1.439,87.402,-97.229,170.654
-1.231,0.751,-1.367,90.759,-103.088,152.527
-1.219,0.772,-1.314,93.140,-108.154,132.690
-1.196,0.784,-1.292,91.370,-111.755,114.258
-1.197,0.764,-1.292,87.891,-114.197,98.816
-1.180,0.719,-1.280,86.792,-116.455,86.853
-1.108,0.701,-1.198,89.233,-118.103,77.026
-1.066,0.683,-1.095,93.811,-117.065,66.772
-1.025,0.650,-1.045,95.276,-112.854,55.786
-1.048,0.604,-1.045,93.384,-108.582,44.861
-1.050,0.594,-1.064,92.651,-107.666,35.278
-0.994,0.635,-1.021,95.215,-111.450,24.841
-0.947,0.655,-0.949,97.168,-117.371,11.292
-0.905,0.622,-0.870,95.215,-122.192,-4.211
-0.861,0.560,-0.781,92.163,-125.244,-20.203
-0.803,0.509,-0.708,92.163,-125.183,-35.522
-0.741,0.488,-0.647,93.445,-122.131,-47.302
-0.684,0.473,-0.597,93.506,-116.821,-55.298
-0.642,0.469,-0.557,90.515,-110.718,-59.631
-0.609,0.483,-0.538,84.473,-105.103,-61.890
-0.583,0.485,-0.536,77.759,-100.586,-64.819
-0.568,0.473,-0.527,70.374,-97.778,-69.641
-0.560,0.468,-0.505,67.017,-96.069,-76.233
-0.552,0.451,-0.488,66.650,-93.262,-83.557
-0.538,0.456,-0.479,68.848,-88.562,-90.088
-0.506,0.464,-0.465,67.444,-81.482,-96.985
-0.465,0.456,-0.474,62.988,-72.449,-104.492
-0.427,0.434,-0.471,60.974,-63.477,-112.671
-0.397,0.416,-0.474,61.462,-55.603,-120.728
-0.370,0.379,-0.470,60.669,-48.950,-128.052
-0.338,0.324,-0.449,58.472,-44.312,-133.789
-0.304,0.300,-0.459,56.702,-40.588,-137.756
-0.262,0.284,-0.497,52.856,-37.598,-140.015
-0.208,0.225,-0.519,47.058,-35.889,-141.174
-0.162,0.148,-0.533,43.945,-34.668,-141.479
-0.135,0.096,-0.531,43.945,-33.020,-139.893
-0.118,0.078,-0.507,43.518,-30.396,-137.573
-0.101,0.082,-0.461,40.344,-26.733,-135.803
-0.084,0.094,-0.396,35.645,-22.339,-135.803
-0.069,0.093,-0.364,30.701,-17.029,-137.390
-0.060,0.065,-0.396,24.353,-12.085,-139.099
-0.043,0.025,-0.462,18.433,-9.277,-139.038
-0.012,0.000,-0.508,13.062,-9.521,-136.841
0.024,-0.026,-0.550,7.812,-10.925,-134.521
0.067,-0.084,-0.560,3.235,-12.817,-132.874
0.120,-0.167,-0.575,1.831,-13.794,-131.165
0.179,-0.263,-0.568,1.282,-12.573,-127.625
0.224,-0.300,-0.519,1.526,-8.606,-121.094
0.251,-0.263,-0.497,1.770,-2.502,-112.854

0.394,0.301,-0.882,40.344,12.268,-24.536
0.506,0.349,-0.629,20.813,2.869,-12.695
0.461,0.424,-0.620,6.958,-1.892,-5.798
0.422,0.460,-0.718,-8.057,-2.197,-5.432
0.487,0.459,-0.776,-13.733,-4.333,-8.484
0.518,0.392,-0.759,-11.108,-7.385,-10.803
0.519,0.399,-0.731,-5.920,-6.409,-6.470
0.516,0.418,-0.754,0.916,-0.183,1.160
0.508,0.438,-0.803,14.404,8.423,7.690
0.510,0.503,-0.813,33.447,15.564,13.611
0.512,0.588,-0.782,49.316,20.081,18.494
0.517,0.669,-0.785,57.678,23.010,21.057
0.517,0.751,-0.843,59.448,22.583,21.545
0.506,0.815,-0.935,60.791,16.296,20.813
0.515,0.868,-0.939,70.374,4.639,19.592
0.468,0.948,-1.058,91.675,-8.301,18.738
0.418,0.932,-0.936,121.643,-16.785,18.066
0.370,0.901,-0.737,160.156,-17.944,14.343
0.359,0.872,-0.543,202.454,-7.568,6.287
0.313,0.743,-0.362,243.530,11.780,-3.784
0.264,0.678,-0.225,285.339,36.133,-11.353
0.234,0.690,-0.118,321.167,59.631,-14.648
0.189,0.709,-0.008,344.727,78.613,-15.930
0.098,0.701,0.076,359.558,90.027,-17.761
-0.014,0.688,0.167,369.751,92.590,-20.508
-0.149,0.713,0.328,374.695,86.182,-22.766
-0.251,0.735,0.526,369.080,76.111,-25.208
-0.364,0.619,0.711,347.290,67.383,-27.710
-0.409,0.590,0.851,315.796,66.040,-28.137
-0.413,0.540,0.940,283.569,74.158,-29.663
-0.437,0.470,0.955,255.005,89.783,-33.203
-0.457,0.391,0.912,228.943,109.375,-36.682
-0.470,0.310,0.882,204.773,129.333,-37.842
-0.474,0.267,0.829,179.871,149.048,-34.912
-0.446,0.244,0.694,148.315,169.739,-28.137
-0.406,0.202,0.470,111.511,188.538,-19.348
-0.391,0.145,0.215,76.721,201.660,-8.972
-0.386,0.136,-0.012,49.927,207.458,2.075
-0.374,0.073,-0.126,29.724,207.092,14.038
-0.337,0.069,-0.212,11.719,205.505,28.748
-0.308,0.033,-0.307,-6.409,205.872,45.166
-0.311,0.000,-0.417,-23.437,206.665,64.148
-0.326,0.016,-0.503,-37.659,206.055,85.693
-0.354,0.050,-0.560,-53.040,204.041,109.009
-0.419,0.089,-0.625,-73.059,202.942,133.179
-0.500,0.135,-0.731,-93.994,204.346,155.945
-0.610,0.226,-0.939,-114.441,206.909,175.110
-0.731,0.352,-1.266,-132.385,206.299,188.171
-0.763,0.502,-1.512,-137.756,196.838,192.078
-0.735,0.615,-1.615,-129.700,180.725,185.608
-0.690,0.659,-1.662,-122.864,165.649,174.011
-0.641,0.649,-1.791,-121.277,155.151,163.391
-0.584,0.648,-1.950,-117.737,145.447,155.579
-0.526,0.650,-2.018,-103.577,133.179,150.635
-0.489,0.637,-1.986,-75.745,120.972,148.926
-0.456,0.652,-1.871,-42.114,113.098,152.954
-0.447,0.694,-1.759,-12.024,109.985,162.842
-0.495,0.778,-1.685,11.230,109.253,175.598
-0.567,0.904,-1.606,28.503,106.628,186.890
-0.605,1.069,-1.528,40.344,99.731,191.772
-0.603,1.220,-1.459,40.710,88.745,188.232
-0.589,1.322,-1.436,27.100,75.317,178.162
-0.577,1.371,-1.473,4.761,60.486,164.490
-0.558,1.354,-1.573,-16.724,44.556,148.193
-0.529,1.275,-1.690,-26.672,27.344,130.127
-0.488,1.157,-1.714,-16.296,9.338,113.770
-0.452,1.021,-1.614,7.080,-7.446,101.685
-0.400,0.886,-1.483,35.522,-20.996,98.145
-0.365,0.788,-1.352,61.523,-31.067,103.821
-0.384,0.736,-1.224,79.712,-40.649,116.394
-0.440,0.778,-1.085,91.797,-52.246,132.812
-0.506,0.874,-0.964,96.558,-64.514,148.865
-0.552,0.995,-0.906,94.360,-75.012,159.058
-0.624,1.054,-0.882,84.717,-85.388,160.217
-0.685,1.051,-0.891,75.378,-96.313,154.114
-0.737,1.021,-0.887,70.435,-107.605,144.714
-0.767,0.987,-0.871,70.007,-117.676,135.742
-0.780,0.923,-0.864,71.106,-125.549,128.418
-0.786,0.826,-0.858,74.341,-131.958,123.718
-0.785,0.719,-0.859,80.322,-137.207,123.108
-0.831,0.680,-0.830,87.585,-141.907,127.808
-0.864,0.647,-0.790,96.252,-145.996,136.047
-0.884,0.661,-0.724,104.797,-149.414,145.325
-0.908,0.720,-0.663,110.413,-151.489,152.527
-0.936,0.747,-0.638,108.765,-152.039,156.372
-0.957,0.748,-0.630,103.394,-152.466,155.029
-0.960,0.719,-0.625,97.961,-153.381,149.109
-0.958,0.657,-0.608,91.797,-155.029,142.761
-0.940,0.622,-0.547,86.426,-157.654,139.893
-0.924,0.630,-0.535,75.623,-159.729,142.212
-0.936,0.646,-0.605,59.875,-160.889,148.560
-0.973,0.656,-0.664,45.898,-164.795,155.701
-1.027,0.691,-0.619,37.048,-171.692,161.011
-1.084,0.797,-0.437,28.198,-176.941,163.696
-1.124,0.892,-0.240,7.141,-174.500,159.119
-1.164,1.025,-0.229,-34.241,-164.490,145.386
-1.184,1.228,-0.429,-91.614,-152.832,122.986
-1.172,1.323,-0.751,-145.691,-149.292,90.942
-1.153,1.261,-1.058,-180.908,-159.424,52.368
-1.139,1.181,-1.224,-194.763,-180.786,18.738
-1.133,1.166,-1.261,-195.190,-204.529,-5.676
-1.161,1.209,-1.163,-189.697,-222.595,-25.940
-1.225,1.229,-1.066,-191.650,-230.530,-45.776
-1.255,1.253,-1.025,-208.557,-231.873,-64.514
-1.234,1.223,-1.037,-234.070,-231.995,-83.862
-1.147,1.142,-1.124,-256.104,-232.910,-105.225
-1.020,1.044,-1.256,-273.682,-235.901,-122.070
-0.897,0.948,-1.347,-285.522,-242.371,-128.662
-0.794,0.880,-1.377,-290.588,-250.671,-126.587
-0.707,0.853,-1.391,-292.603,-257.751,-120.667
-0.633,0.802,-1.411,-293.762,-262.329,-113.953
-0.557,0.728,-1.436,-293.274,-265.503,-106.689
-0.485,0.675,-1.508,-288.330,-267.517,-97.229
-0.429,0.624,-1.529,-271.484,-267.334,-86.609
-0.393,0.579,-1.525,-243.469,-262.756,-75.134
-0.363,0.557,-1.530,-209.351,-252.930,-62.744
-0.335,0.525,-1.496,-172.058,-240.540,-53.711
-0.323,0.467,-1.408,-136.719,-229.736,-49.316
-0.303,0.406,-1.311,-110.291,-221.741,-46.387
-0.268,0.340,-1.187,-94.666,-216.858,-41.931
-0.226,0.289,-1.045,-88.196,-213.928,-35.889
-0.191,0.279,-0.929,-92.163,-210.876,-28.931
-0.176,0.317,-0.887,-110.962,-208.862,-24.658
-0.161,0.349,-0.908,-139.954,-211.548,-24.475
-0.124,0.359,-0.943,-168.579,-218.811,-27.283
-0.064,0.309,-0.944,-185.120,-226.685,-31.128
-0.011,0.222,-0.883,-186.218,-229.675,-33.447
0.001,0.145,-0.758,-175.415,-224.854,-31.982
0.002,0.133,-0.702,-164.307,-211.426,-26.001
-0.005,0.151,-0.699,-156.311,-196.045,-20.691
-0.019,0.107,-0.622,-146.973,-182.617,-21.118
-0.008,0.089,-0.571,-145.569,-172.974,-27.283
0.016,0.113,-0.594,-159.241,-167.053,-38.452
0.035,0.087,-0.669,-180.786,-167.480,-52.612
0.091,0.041,-0.711,-199.097,-176.636,-65.247
0.144,-0.036,-0.728,-213.928,-189.758,-73.120
0.161,-0.197,-0.677,-216.797,-200.684,-77.087
0.168,-0.252,-0.637,-208.740,-208.679,-75.134
0.148,-0.278,-0.539,-194.031,-213.257,-70.068
0.109,-0.372,-0.325,-173.218,-213.501,-65.063
0.078,-0.463,-0.115,-149.048,-202.820,-59.387
0.077,-0.524,0.012,-130.859,-182.678,-51.392
0.078,-0.509,0.019,-119.995,-159.607,-44.067
0.079,-0.497,-0.032,-115.784,-141.968,-40.710
0.083,-0.541,-0.081,-106.018,-131.653,-42.175
0.099,-0.638,-0.078,-84.473,-125.244,-46.204
0.151,-0.760,-0.030,-52.063,-119.629,-48.462
0.218,-0.867,0.086,-13.855,-111.877,-46.631
0.258,-0.941,0.197,23.010,-99.609,-38.940

0.815,0.021,-0.564,-49.927,-5.737,3.540
0.804,-0.068,-0.553,-58.289,-5.310,-4.456
0.899,-0.083,-0.569,-57.190,-10.193,-12.207
0.876,-0.156,-0.586,-51.575,-11.658,-18.188
0.889,-0.123,-0.568,-44.617,-13.000,-18.127
0.908,-0.077,-0.499,-39.795,-16.479,-12.939
0.886,-0.019,-0.461,-41.077,-13.733,-11.353
0.863,-0.030,-0.474,-42.480,-8.545,-14.587
0.893,-0.052,-0.499,-43.152,-5.249,-20.508
0.926,-0.099,-0.509,-42.664,-4.089,-26.733
0.948,-0.121,-0.479,-42.480,-4.272,-31.128
0.969,-0.075,-0.474,-46.143,-4.517,-32.898
0.999,-0.072,-0.513,-58.899,-6.897,-35.278
1.053,-0.058,-0.595,-79.956,-15.015,-38.757
1.074,-0.058,-0.664,-112.366,-30.884,-42.908
1.040,-0.103,-0.762,-151.855,-51.025,-47.729
1.003,-0.028,-0.916,-177.795,-77.698,-50.110
0.976,0.144,-0.888,-192.383,-108.093,-52.429
0.917,0.274,-0.955,-205.383,-137.695,-58.289
0.844,0.442,-1.003,-212.219,-163.391,-69.519
0.697,0.522,-0.977,-212.158,-186.279,-87.158
0.543,0.530,-0.834,-205.139,-204.346,-111.694
0.410,0.490,-0.630,-187.866,-213.318,-142.273
0.319,0.443,-0.463,-166.443,-210.999,-178.223
0.264,0.330,-0.349,-154.541,-200.012,-215.881
0.212,0.187,-0.193,-154.846,-185.669,-249.451
0.156,0.031,-0.044,-166.565,-171.875,-275.513
0.119,-0.045,-0.002,-190.063,-160.767,-291.748
0.083,-0.068,-0.093,-218.201,-155.701,-299.561
0.013,-0.072,-0.206,-239.807,-160.522,-301.025
-0.105,-0.102,-0.322,-244.385,-174.072,-299.622
-0.186,-0.129,-0.391,-228.271,-192.505,-296.936
-0.250,-0.202,-0.404,-191.895,-210.693,-293.945
-0.306,-0.243,-0.327,-137.024,-223.267,-290.100
-0.360,-0.351,-0.121,-75.439,-225.586,-285.828
-0.458,-0.448,0.148,-15.442,-213.440,-278.809
-0.529,-0.469,0.353,33.508,-185.120,-267.883
-0.529,-0.490,0.509,62.073,-146.729,-254.761
-0.498,-0.528,0.578,67.444,-106.323,-240.295
-0.474,-0.557,0.526,54.810,-72.388,-226.135
-0.468,-0.564,0.422,35.583,-53.040,-213.257
-0.497,-0.604,0.323,21.973,-50.598,-202.515
-0.498,-0.501,0.314,21.118,-60.364,-191.528
-0.537,-0.517,0.243,13.733,-70.740,-181.519
-0.584,-0.594,0.233,12.634,-80.688,-170.776
-0.594,-0.663,0.329,27.954,-85.388,-160.583
-0.577,-0.728,0.424,59.998,-77.942,-152.100
-0.547,-0.736,0.484,102.356,-58.105,-145.386
-0.538,-0.772,0.546,142.517,-31.921,-139.343
-0.550,-0.830,0.518,170.654,-2.563,-130.249
-0.500,-0.907,0.423,184.570,23.987,-115.173
-0.467,-0.946,0.349,199.097,44.861,-98.877
-0.479,-0.984,0.249,210.999,58.594,-86.426
-0.495,-0.990,0.200,213.867,64.026,-78.125
-0.545,-0.989,0.163,205.261,63.599,-70.374
-0.593,-1.016,0.172,189.087,59.937,-61.951
-0.624,-1.076,0.192,179.443,57.922,-55.115
-0.665,-1.039,0.171,183.960,65.308,-50.659
-0.685,-1.032,0.125,190.308,76.904,-46.753
-0.709,-1.092,0.067,199.402,86.365,-47.546
-0.724,-1.171,0.035,225.952,97.961,-51.941
-0.691,-1.301,0.026,255.066,111.389,-54.932
-0.661,-1.466,0.010,276.489,124.451,-52.063
-0.639,-1.603,0.004,290.833,136.658,-42.725
-0.618,-1.701,-0.003,299.622,148.437,-29.175
-0.611,-1.775,-0.001,302.429,159.485,-12.878
-0.631,-1.854,-0.011,298.889,170.776,5.859
-0.649,-1.900,-0.071,289.612,182.556,27.100
-0.660,-1.866,-0.141,277.588,193.909,47.852
-0.695,-1.813,-0.256,262.878,203.674,64.270
-0.723,-1.766,-0.411,246.338,211.365,74.585
-0.691,-1.778,-0.554,228.699,214.661,78.369
-0.641,-1.814,-0.702,212.158,213.501,80.017
-0.569,-1.893,-0.836,196.777,208.557,84.106
-0.494,-1.996,-0.952,185.120,200.562,93.262
-0.417,-2.108,-1.060,179.871,190.308,109.985
-0.353,-2.185,-1.164,179.687,179.382,135.193
-0.319,-2.165,-1.228,182.983,169.800,168.335
-0.337,-2.071,-1.216,188.293,163.757,204.346
-0.427,-1.891,-1.213,194.702,162.415,237.122
-0.474,-1.604,-1.215,200.500,165.405,259.705
-0.445,-1.363,-1.277,204.834,172.852,267.090
-0.390,-1.204,-1.441,203.918,181.091,260.071
-0.338,-1.124,-1.636,201.843,181.519,247.559
-0.264,-1.055,-1.825,203.491,168.396,237.305
-0.204,-0.962,-1.924,207.397,141.479,231.934
-0.165,-0.865,-2.012,208.618,108.337,233.826
-0.147,-0.790,-2.054,205.933,73.853,241.272
-0.161,-0.725,-2.025,201.355,40.344,252.075
-0.222,-0.647,-1.982,195.129,11.963,264.221
-0.313,-0.511,-1.944,185.974,-11.536,275.879
-0.399,-0.301,-1.902,175.781,-31.677,282.471
-0.448,-0.085,-1.891,164.490,-48.096,278.931
-0.478,0.090,-1.905,153.931,-63.293,265.747
-0.479,0.226,-1.908,148.254,-79.590,249.329
-0.456,0.325,-1.858,147.644,-96.802,234.680
-0.444,0.379,-1.774,151.123,-113.525,222.717
-0.449,0.460,-1.673,157.715,-127.197,215.881
-0.475,0.533,-1.509,165.955,-138.062,211.609
-0.528,0.603,-1.301,174.744,-144.653,205.688
-0.600,0.659,-1.097,178.101,-145.142,196.472
-0.626,0.735,-0.969,173.828,-139.832,182.251
-0.595,0.814,-0.943,164.673,-131.409,160.522
-0.550,0.837,-1.008,156.250,-123.535,130.615
-0.504,0.790,-1.080,153.442,-119.446,95.947
-0.439,0.705,-1.106,157.593,-119.080,60.181
-0.366,0.587,-1.071,167.236,-120.605,28.259
-0.311,0.476,-0.971,178.894,-121.704,4.150
-0.273,0.400,-0.839,188.721,-119.690,-10.132
-0.244,0.372,-0.744,193.726,-112.915,-16.174
-0.220,0.379,-0.667,192.444,-103.394,-17.151
-0.215,0.382,-0.573,187.439,-93.384,-17.822
-0.207,0.414,-0.543,180.115,-83.435,-20.691
-0.190,0.463,-0.567,170.227,-73.792,-26.794
-0.151,0.465,-0.601,158.569,-66.589,-36.255
-0.104,0.446,-0.671,146.606,-62.622,-47.791
-0.055,0.411,-0.733,136.902,-62.195,-60.974
-0.035,0.303,-0.715,131.287,-65.002,-72.998
-0.011,0.224,-0.663,128.601,-67.566,-80.261
0.016,0.205,-0.596,126.160,-67.810,-82.275
0.048,0.173,-0.520,121.521,-64.331,-81.055
0.072,0.131,-0.450,116.455,-58.533,-78.796
0.079,0.123,-0.381,113.220,-50.903,-76.294
0.074,0.154,-0.329,111.145,-42.053,-73.364
0.077,0.209,-0.313,108.032,-31.616,-71.472
0.083,0.261,-0.322,102.478,-20.935,-72.510
0.089,0.284,-0.370,95.276,-10.986,-77.942
0.095,0.241,-0.402,89.661,-4.028,-87.585
0.117,0.134,-0.409,88.257,1.160,-98.999
0.174,0.031,-0.422,89.478,7.080,-108.032
0.254,-0.065,-0.432,91.492,13.855,-112.854
0.326,-0.161,-0.429,90.820,20.325,-112.610
0.369,-0.243,-0.396,87.158,25.635,-107.056
0.389,-0.252,-0.404,82.031,29.358,-97.046
0.412,-0.180,-0.461,74.402,30.701,-84.961
0.437,-0.100,-0.531,62.988,28.137,-74.158
0.451,-0.052,-0.585,50.415,21.912,-66.956
0.447,-0.061,-0.601,39.978,13.367,-63.416
0.452,-0.108,-0.582,33.752,6.042,-62.317
0.489,-0.172,-0.578,30.457,3.357,-62.622
0.535,-0.256,-0.575,28.564,5.920,-61.890
0.578,-0.300,-0.591,29.297,12.634,-57.373
0.601,-0.277,-0.622,31.860,21.667,-48.279
0.603,-0.211,-0.686,32.715,30.212,-36.438
0.596,-0.131,-0.756,30.945,35.706,-25.146
0.595,-0.064,-0.813,28.931,36.255,-17.578
0.590,-0.013,-0.858,28.503,32.776,-14.526
0.584,0.007,-0.855,30.457,27.222,-14.465
0.592,0.011,-0.825,32.898,22.583,-14.526

0.679,0.327,-0.849,-7.019,-12.512,-7.263
0.653,0.258,-0.849,-19.348,-20.142,0.366
0.746,0.348,-0.800,-23.682,-32.288,13.367
0.680,0.403,-0.727,-22.583,-34.180,22.644
0.606,0.449,-0.718,-25.085,-28.198,26.733
0.625,0.480,-0.738,-22.888,-20.935,26.062
0.627,0.506,-0.757,-16.479,-14.709,21.301
0.601,0.484,-0.757,-11.719,-9.583,14.893
0.590,0.432,-0.764,-8.789,-7.263,9.583
0.600,0.424,-0.796,-5.310,-7.263,6.348
0.634,0.420,-0.832,-3.418,-9.338,5.615
0.663,0.428,-0.823,-1.648,-13.489,6.165
0.677,0.464,-0.785,0.000,-17.090,7.385
0.667,0.472,-0.777,-0.244,-19.043,8.240
0.653,0.467,-0.792,-0.732,-20.752,8.606
0.650,0.483,-0.803,1.404,-23.743,9.155
0.653,0.505,-0.825,8.301,-26.550,8.179
0.652,0.542,-0.832,18.066,-28.625,5.249
0.647,0.601,-0.830,30.823,-29.175,1.160
0.732,0.645,-0.731,43.823,-27.161,-4.028
0.711,0.677,-0.938,56.702,-21.667,-9.216
0.768,0.651,-0.997,69.580,-19.653,-14.221
0.811,0.613,-0.992,88.440,-20.325,-15.930
0.811,0.579,-0.901,107.971,-22.034,-14.709
0.763,0.545,-0.705,121.582,-21.606,-12.634
0.744,0.597,-0.648,123.352,-14.832,-12.573
0.768,0.674,-0.732,112.183,-5.859,-14.099
0.767,0.688,-0.785,97.168,-2.808,-17.029
0.738,0.710,-0.765,86.426,-7.263,-20.203
0.691,0.726,-0.680,75.623,-16.296,-22.644
0.634,0.746,-0.587,60.547,-26.062,-24.353
0.586,0.762,-0.473,44.556,-33.813,-27.283
0.536,0.740,-0.313,33.264,-39.001,-32.104
0.502,0.739,-0.158,27.954,-39.673,-35.828
0.463,0.758,-0.001,25.696,-34.912,-36.804
0.397,0.765,0.144,25.146,-24.231,-35.400
0.302,0.783,0.254,26.428,-8.484,-32.837
0.193,0.792,0.299,29.236,10.742,-31.494
0.113,0.823,0.314,33.020,31.250,-33.569
0.054,0.841,0.317,39.368,49.255,-39.917
0.009,0.819,0.349,47.424,64.087,-50.232
-0.034,0.749,0.414,54.504,76.538,-61.646
-0.071,0.660,0.447,57.190,89.417,-71.899
-0.089,0.561,0.422,54.626,102.417,-79.224
-0.081,0.429,0.376,49.133,112.854,-82.642
-0.072,0.319,0.398,45.837,118.530,-81.238
-0.096,0.246,0.422,41.687,123.230,-75.439
-0.144,0.184,0.450,35.461,130.127,-66.772
-0.191,0.143,0.449,29.541,140.198,-56.641
-0.242,0.134,0.425,26.672,152.771,-45.898
-0.306,0.123,0.389,27.100,167.175,-35.889
-0.383,0.110,0.363,29.480,182.068,-29.297
-0.445,0.100,0.311,30.457,196.777,-26.123
-0.474,0.094,0.230,29.053,210.693,-25.818
-0.482,0.050,0.147,24.414,222.656,-27.466
-0.482,-0.039,0.054,16.663,231.567,-28.809
-0.481,-0.115,-0.072,6.287,236.633,-26.489
-0.465,-0.173,-0.230,-9.094,237.793,-19.836
-0.453,-0.246,-0.402,-27.039,236.023,-10.864
-0.447,-0.281,-0.514,-38.757,231.628,-1.892
-0.467,-0.307,-0.550,-41.260,226.746,7.141
-0.516,-0.320,-0.546,-38.574,223.816,16.235
-0.594,-0.294,-0.550,-37.476,224.976,26.794
-0.671,-0.255,-0.633,-42.664,229.858,35.645
-0.707,-0.225,-0.834,-52.856,236.206,40.649
-0.696,-0.222,-1.097,-59.753,240.112,41.321
-0.663,-0.255,-1.312,-61.829,237.549,40.222
-0.652,-0.294,-1.437,-56.702,229.309,39.978
-0.664,-0.351,-1.517,-48.157,219.482,41.687
-0.684,-0.416,-1.595,-44.067,210.876,46.997
-0.693,-0.506,-1.620,-44.373,204.285,55.969
-0.692,-0.563,-1.669,-42.847,200.500,67.200
-0.680,-0.584,-1.768,-42.358,198.425,79.407
-0.697,-0.583,-1.901,-39.490,194.702,91.431
-0.714,-0.545,-2.003,-33.081,189.270,103.882
-0.723,-0.509,-2.093,-23.132,181.946,116.028
-0.725,-0.464,-2.156,-9.888,174.011,127.686
-0.752,-0.416,-2.152,2.930,165.771,137.268
-0.786,-0.401,-2.130,18.738,159.180,143.860
-0.780,-0.312,-2.123,38.757,155.090,151.550
-0.782,-0.254,-2.111,47.852,148.132,159.424
-0.804,-0.239,-2.096,53.955,135.803,167.603
-0.814,-0.160,-2.072,61.890,122.314,176.941
-0.842,-0.066,-2.027,68.481,110.413,184.998
-0.881,0.013,-1.993,71.777,97.900,190.308
-0.909,0.096,-1.977,70.862,83.740,193.848
-0.909,0.173,-1.937,68.970,66.711,195.618
-0.897,0.243,-1.855,66.162,47.668,196.045
-0.879,0.286,-1.762,61.218,30.090,195.068
-0.858,0.282,-1.693,55.725,16.663,191.223
-0.831,0.253,-1.670,50.354,6.958,185.791
-0.804,0.220,-1.670,47.424,-1.221,181.091
-0.792,0.188,-1.678,48.340,-9.338,178.223
-0.799,0.149,-1.680,52.063,-18.433,177.917
-0.823,0.129,-1.641,59.204,-27.466,181.458
-0.831,0.155,-1.586,67.322,-34.241,188.965
-0.833,0.216,-1.580,74.463,-38.452,198.425
-0.858,0.290,-1.587,80.261,-43.152,205.811
-0.901,0.365,-1.591,85.693,-50.537,210.083
-0.935,0.424,-1.572,90.576,-60.120,209.412
-0.955,0.466,-1.542,94.055,-70.557,204.834
-0.965,0.495,-1.513,96.069,-80.505,198.547
-0.975,0.523,-1.494,97.412,-89.661,192.566
-0.994,0.547,-1.456,99.243,-98.572,187.988
-1.036,0.582,-1.380,102.417,-106.995,185.791
-1.077,0.652,-1.324,104.065,-112.793,184.814
-1.113,0.753,-1.331,100.769,-116.089,184.265
-1.152,0.849,-1.345,95.886,-119.080,181.396
-1.190,0.943,-1.356,92.590,-123.718,174.316
-1.228,1.039,-1.348,92.041,-129.395,162.598
-1.235,1.114,-1.336,93.811,-134.583,146.729
-1.199,1.128,-1.297,97.290,-139.526,128.601
-1.169,1.133,-1.208,104.736,-144.653,110.962
-1.148,1.144,-1.106,116.455,-145.813,91.858
-1.124,1.131,-1.018,124.634,-142.151,72.144
-1.097,1.122,-0.977,127.502,-137.024,54.810
-1.058,1.139,-0.967,125.427,-133.972,40.161
-1.033,1.126,-0.925,121.460,-134.583,26.184
-1.018,1.125,-0.881,118.652,-136.414,10.803
-1.002,1.106,-0.828,114.502,-138.672,-4.150
-0.979,1.066,-0.770,108.643,-141.113,-17.944
-0.934,1.023,-0.719,103.027,-143.005,-30.090
-0.879,0.973,-0.666,98.083,-143.982,-39.490
-0.824,0.912,-0.626,93.384,-143.250,-46.509
-0.760,0.870,-0.609,89.355,-140.808,-51.270
-0.711,0.840,-0.604,87.585,-137.756,-54.382
-0.691,0.799,-0.562,88.135,-135.254,-56.885
-0.682,0.760,-0.485,89.783,-132.874,-58.228
-0.667,0.763,-0.428,89.417,-129.028,-58.350
-0.651,0.784,-0.393,85.388,-124.390,-58.411
-0.642,0.816,-0.362,80.444,-119.812,-59.814
-0.639,0.861,-0.334,75.806,-116.028,-64.331
-0.637,0.858,-0.292,69.458,-111.816,-70.923
-0.627,0.839,-0.261,61.462,-106.445,-79.163
-0.605,0.801,-0.245,54.504,-98.999,-88.623
-0.564,0.755,-0.247,49.438,-89.600,-99.060
-0.517,0.693,-0.270,47.424,-78.613,-108.643
-0.476,0.632,-0.303,46.448,-67.566,-115.356
-0.432,0.589,-0.362,44.983,-57.861,-119.324
-0.400,0.532,-0.380,43.091,-51.941,-121.399
-0.385,0.484,-0.366,45.044,-48.035,-123.108
-0.351,0.461,-0.363,48.828,-42.175,-125.000
-0.326,0.435,-0.349,48.889,-35.461,-126.221
-0.304,0.411,-0.331,46.997,-29.175,-127.258
-0.291,0.423,-0.291,45.593,-23.193,-127.869
-0.283,0.430,-0.262,44.312,-15.991,-129.700
-0.271,0.396,-0.256,42.786,-7.629,-133.179
-0.255,0.352,-0.267,42.358,1.221,-136.902
-0.226,0.311,-0.281,42.480,10.986,-138.733

0.414,0.642,-0.643,0.549,13.000,13.916
0.357,0.714,-0.566,-4.272,17.334,15.991
0.405,0.769,-0.612,-5.798,20.630,11.902
0.409,0.728,-0.667,-8.972,24.414,3.174
0.420,0.625,-0.704,-10.986,23.926,-4.395
0.435,0.551,-0.625,-5.981,19.226,-7.874
0.432,0.552,-0.581,-2.319,16.968,-7.874
0.450,0.566,-0.616,-5.554,18.066,-4.944
0.476,0.559,-0.610,-6.775,18.799,-1.160
0.504,0.578,-0.561,-3.113,20.203,3.479
0.500,0.651,-0.543,1.465,24.292,9.827
0.505,0.804,-0.508,5.615,29.419,15.930
0.449,0.956,-0.465,9.338,35.339,16.846
0.396,1.000,-0.334,11.597,42.542,10.925
0.354,0.989,-0.198,20.569,52.551,2.747
0.309,0.948,-0.096,34.363,68.237,-3.296
0.288,0.873,-0.016,52.185,87.830,-3.845
0.255,0.791,0.096,76.477,110.168,0.732
0.208,0.767,0.186,103.394,134.338,9.155
0.166,0.734,0.270,123.535,158.813,17.578
0.108,0.591,0.340,135.193,179.749,23.132
0.035,0.585,0.412,142.822,195.984,26.917
-0.042,0.532,0.450,143.616,205.505,29.419
-0.108,0.503,0.495,127.441,206.238,34.973
-0.174,0.400,0.466,92.468,203.613,41.992
-0.230,0.338,0.268,41.687,199.585,50.781
-0.273,0.105,-0.054,-9.827,193.237,57.373
-0.253,-0.044,-0.436,-41.077,180.786,62.927
-0.196,-0.120,-0.598,-59.875,159.668,71.716
-0.155,-0.118,-0.746,-60.608,135.925,81.482
-0.177,-0.129,-0.785,-43.091,115.784,92.407
-0.229,-0.131,-0.550,-13.855,100.098,106.445
-0.305,-0.021,-0.269,20.386,97.168,122.070
-0.454,0.175,-0.092,42.175,110.291,137.268
-0.633,0.293,-0.024,52.429,131.348,147.400
-0.745,0.401,-0.043,58.228,152.039,151.306
-0.797,0.489,-0.109,58.777,167.297,148.621
-0.837,0.526,-0.250,49.561,175.720,139.771
-0.840,0.554,-0.461,29.846,176.758,128.174
-0.811,0.526,-0.655,4.211,168.518,116.638
-0.785,0.455,-0.847,-21.729,154.358,106.689
-0.770,0.366,-0.991,-42.847,137.085,101.379
-0.740,0.361,-1.109,-58.167,120.361,101.868
-0.694,0.382,-1.197,-66.956,107.849,105.591
-0.669,0.408,-1.287,-66.711,101.868,107.971
-0.690,0.406,-1.303,-59.631,98.450,107.361
-0.735,0.434,-1.260,-42.847,96.069,102.905
-0.739,0.468,-1.237,-22.461,99.121,96.619
-0.774,0.459,-1.275,-4.883,102.478,91.370
-0.812,0.466,-1.329,9.583,102.600,92.773
-0.882,0.490,-1.282,16.663,97.168,99.792
-0.933,0.585,-1.326,15.015,89.966,106.018
-0.964,0.662,-1.380,6.287,79.590,107.300
-0.963,0.682,-1.379,-2.991,64.392,102.661
-0.920,0.641,-1.283,-11.841,47.607,94.421
-0.817,0.529,-1.274,-21.057,36.987,85.205
-0.697,0.357,-1.376,-23.743,33.203,78.979
-0.640,0.205,-1.403,-14.648,29.114,79.407
-0.619,0.195,-1.387,4.028,24.231,88.257
-0.680,0.254,-1.330,18.311,20.386,100.769
-0.727,0.322,-1.270,20.813,12.146,111.755
-0.702,0.408,-1.289,18.860,2.808,117.615
-0.705,0.399,-1.312,17.517,-5.859,117.737
-0.703,0.380,-1.293,22.095,-15.015,116.638
-0.688,0.383,-1.260,29.114,-23.987,117.065
-0.685,0.392,-1.230,36.743,-30.945,118.103
-0.700,0.410,-1.205,41.748,-37.781,118.103
-0.672,0.401,-1.198,45.105,-45.227,117.554
-0.653,0.365,-1.142,50.781,-52.734,117.615
-0.668,0.332,-1.093,56.702,-59.082,118.713
-0.694,0.306,-1.060,60.852,-64.026,121.399
-0.728,0.303,-1.016,65.430,-68.665,125.244
-0.787,0.326,-0.977,71.899,-72.937,129.761
-0.854,0.384,-0.931,78.796,-75.256,134.094
-0.908,0.455,-0.907,84.290,-76.660,137.268
-0.959,0.485,-0.886,87.830,-77.759,138.794
-1.002,0.507,-0.879,90.210,-78.674,139.526
-1.051,0.541,-0.880,93.079,-79.651,140.503
-1.103,0.597,-0.877,96.313,-81.604,141.418
-1.143,0.659,-0.881,98.267,-84.778,141.724
-1.167,0.688,-0.872,98.755,-88.562,140.564
-1.175,0.713,-0.896,99.182,-91.553,137.695
-1.182,0.722,-0.948,101.318,-93.750,133.972
-1.217,0.716,-0.960,106.628,-96.313,129.822
-1.271,0.723,-0.922,114.746,-98.938,126.160
-1.313,0.740,-0.857,121.826,-100.708,123.840
-1.327,0.754,-0.824,127.502,-100.647,122.009
-1.343,0.763,-0.770,135.376,-98.877,120.911
-1.378,0.801,-0.655,145.264,-97.229,119.568
-1.417,0.866,-0.522,151.062,-95.337,115.540
-1.456,0.951,-0.434,150.696,-93.201,106.201
-1.468,1.012,-0.388,143.494,-91.125,92.529
-1.455,1.060,-0.364,137.268,-88.135,76.294
-1.432,1.067,-0.357,134.949,-83.313,57.739
-1.439,1.052,-0.333,136.841,-76.294,37.598
-1.460,1.040,-0.295,141.235,-67.505,16.968
-1.469,1.010,-0.222,145.386,-57.678,-3.235
-1.439,0.943,-0.180,145.630,-47.913,-21.423
-1.389,0.857,-0.199,143.616,-38.818,-36.194
-1.342,0.794,-0.187,143.250,-32.227,-45.105
-1.306,0.791,-0.149,142.944,-27.649,-49.744
-1.274,0.826,-0.139,140.503,-23.743,-54.016
-1.256,0.895,-0.154,135.864,-20.264,-59.998
-1.237,0.945,-0.178,130.981,-18.921,-69.397
-1.244,0.950,-0.117,128.235,-20.081,-81.970
-1.285,0.933,0.044,123.657,-21.301,-97.229
-1.303,0.923,0.113,107.422,-18.250,-115.356
-1.302,0.918,0.052,82.153,-12.756,-133.118
-1.294,0.883,-0.005,61.401,-8.728,-146.606
-1.264,0.814,-0.040,49.622,-6.287,-155.518
-1.215,0.715,-0.044,42.908,-4.028,-160.889
-1.146,0.634,-0.028,40.344,-0.793,-164.001
-1.043,0.598,-0.003,36.560,3.357,-165.405
-0.950,0.616,-0.011,31.799,8.484,-166.077
-0.888,0.625,-0.052,25.391,13.611,-167.664
-0.839,0.610,-0.102,19.714,17.029,-170.837
-0.797,0.610,-0.152,16.174,20.264,-174.194
-0.758,0.605,-0.187,13.916,24.597,-177.673
-0.734,0.573,-0.235,10.071,29.724,-182.068
-0.695,0.520,-0.316,5.981,33.386,-187.378
-0.633,0.472,-0.365,5.371,34.363,-192.932
-0.569,0.416,-0.344,8.850,33.813,-197.205
-0.517,0.340,-0.265,10.864,33.447,-199.524
-0.450,0.279,-0.220,7.202,34.424,-199.585
-0.347,0.255,-0.264,-2.136,36.682,-195.862
-0.247,0.241,-0.359,-12.573,38.513,-187.683
-0.168,0.220,-0.435,-19.958,39.124,-176.697
-0.114,0.206,-0.457,-23.804,38.818,-164.734
-0.094,0.211,-0.474,-23.315,38.391,-154.236
-0.100,0.224,-0.492,-20.935,38.086,-146.790
-0.092,0.234,-0.488,-20.508,36.926,-141.907
-0.097,0.234,-0.448,-19.104,34.668,-138.306
-0.109,0.237,-0.395,-18.494,31.738,-134.705
-0.099,0.281,-0.365,-21.423,28.748,-129.761
-0.068,0.366,-0.392,-28.809,26.306,-123.169
-0.032,0.420,-0.456,-39.307,24.048,-116.150
0.002,0.418,-0.500,-48.950,21.301,-109.985
0.036,0.392,-0.504,-53.406,19.287,-105.225
0.062,0.367,-0.524,-53.955,19.409,-103.333
0.092,0.332,-0.560,-52.429,21.423,-102.966
0.115,0.289,-0.591,-49.194,24.536,-100.708
0.108,0.272,-0.561,-46.997,27.405,-94.971
0.104,0.295,-0.542,-44.373,30.457,-86.426
0.116,0.376,-0.578,-39.001,32.471,-78.369
0.146,0.476,-0.632,-35.095,31.982,-72.815
0.182,0.527,-0.693,-34.668,29.419,-70.313
0.202,0.523,-0.692,-36.011,25.574,-68.909
0.217,0.500,-0.693,-36.926,23.132,-67.749
0.253,0.486,-0.710,-33.081,23.193,-66.650

0.054,0.816,-0.781,-6.348,0.183,3.967
0.137,0.851,-0.566,-7.568,-4.089,7.690
0.139,0.917,-0.578,-8.362,-6.897,5.005
0.138,0.900,-0.587,-9.644,-7.568,-3.052
0.193,0.884,-0.553,-6.653,-9.338,-10.620
0.219,0.862,-0.525,-4.272,-9.827,-16.418
0.249,0.841,-0.507,-4.822,-8.850,-18.982
0.288,0.815,-0.473,-7.019,-6.836,-19.531
0.319,0.720,-0.492,-8.789,-3.296,-18.616
0.317,0.696,-0.511,-9.094,0.916,-13.000
0.313,0.733,-0.514,-9.277,3.601,-5.371
0.266,0.822,-0.489,-12.146,4.395,0.183
0.189,0.899,-0.475,-19.104,4.028,0.977
0.159,0.952,-0.475,-26.917,3.052,-4.211
0.157,0.924,-0.503,-34.180,1.160,-12.939
0.165,0.877,-0.504,-37.903,-0.488,-22.156
0.146,0.840,-0.473,-36.987,-0.916,-28.442
0.120,0.820,-0.444,-32.166,0.793,-31.128
0.101,0.818,-0.445,-24.475,5.249,-32.593
0.075,0.817,-0.438,-13.672,10.986,-35.156
0.064,0.842,-0.464,1.770,19.836,-39.001
0.058,0.820,-0.369,11.108,28.564,-44.495
0.066,0.806,-0.346,15.991,36.743,-49.011
0.072,0.797,-0.317,17.212,44.861,-52.246
0.061,0.788,-0.325,12.573,51.758,-54.810
0.053,0.799,-0.362,3.052,56.519,-57.068
0.055,0.797,-0.400,-7.507,58.044,-60.486
0.063,0.787,-0.423,-17.029,56.580,-65.674
0.072,0.772,-0.478,-25.635,54.138,-71.045
0.108,0.690,-0.539,-34.241,51.025,-76.111
0.168,0.574,-0.587,-38.818,47.119,-78.918
0.228,0.480,-0.612,-37.720,43.396,-76.660
0.257,0.435,-0.599,-34.180,41.077,-68.542
0.260,0.437,-0.589,-32.532,41.077,-57.495
0.251,0.450,-0.588,-32.654,42.969,-47.058
0.228,0.439,-0.590,-31.738,44.800,-38.696
0.225,0.450,-0.564,-27.771,46.814,-31.799
0.219,0.463,-0.539,-22.339,49.500,-26.245
0.214,0.496,-0.542,-18.311,53.894,-21.851
0.222,0.528,-0.586,-16.113,59.570,-19.714
0.236,0.531,-0.651,-15.381,65.002,-20.081
0.256,0.502,-0.718,-14.893,68.665,-21.667
0.268,0.459,-0.742,-13.184,69.824,-22.034
0.260,0.424,-0.740,-11.292,69.763,-18.799
0.234,0.428,-0.732,-12.085,68.970,-12.268
0.200,0.467,-0.725,-15.076,67.322,-5.127
0.164,0.521,-0.727,-19.470,65.002,0.977
0.130,0.579,-0.738,-24.841,62.195,4.333
0.114,0.616,-0.782,-30.823,59.753,3.052
0.126,0.603,-0.829,-35.522,57.556,-2.136
0.141,0.551,-0.838,-37.048,54.504,-8.972
0.144,0.491,-0.812,-34.180,51.758,-14.771
0.145,0.436,-0.771,-29.846,51.208,-16.785
0.140,0.401,-0.726,-26.428,52.856,-14.465
0.122,0.387,-0.687,-23.560,55.908,-9.460
0.101,0.390,-0.652,-21.545,59.814,-4.272
0.085,0.418,-0.627,-21.606,63.965,0.366
0.086,0.447,-0.671,-23.987,67.810,2.991
0.106,0.449,-0.751,-28.503,70.068,2.869
0.118,0.432,-0.811,-31.433,70.007,0.549
0.131,0.393,-0.835,-32.166,67.932,-1.648
0.139,0.342,-0.847,-33.020,65.491,-2.563
0.141,0.286,-0.848,-35.217,63.293,-0.366
0.129,0.250,-0.841,-37.109,61.157,4.578
0.096,0.245,-0.828,-36.987,59.143,11.841
0.052,0.276,-0.804,-36.926,58.228,20.447
0.007,0.322,-0.805,-38.452,58.350,28.320
-0.023,0.383,-0.837,-41.199,58.899,33.081
-0.032,0.431,-0.890,-44.617,59.143,33.630
-0.021,0.433,-0.935,-46.692,58.228,30.029
-0.004,0.388,-0.961,-45.898,56.763,24.109
0.005,0.324,-0.976,-42.969,55.664,19.531
0.008,0.272,-0.984,-38.818,55.481,19.043
0.005,0.239,-0.984,-34.485,56.213,22.461
-0.008,0.228,-0.974,-30.273,57.312,29.236
-0.039,0.251,-0.964,-28.015,58.777,37.109
-0.070,0.288,-0.963,-27.710,59.570,43.762
-0.092,0.322,-0.988,-29.236,58.960,47.363
-0.097,0.347,-1.021,-30.884,56.641,47.424
-0.096,0.339,-1.039,-32.104,53.040,45.410
-0.091,0.307,-1.034,-32.593,48.950,42.358
-0.078,0.261,-1.033,-32.288,45.898,40.222
-0.070,0.216,-1.030,-31.494,43.823,40.222
-0.076,0.190,-1.028,-29.297,43.152,43.823
-0.087,0.188,-1.032,-25.940,43.701,50.293
-0.110,0.212,-1.043,-22.156,44.678,58.105
-0.131,0.248,-1.063,-18.433,45.044,64.758
-0.140,0.277,-1.089,-15.503,44.373,68.604
-0.152,0.298,-1.097,-13.367,42.603,70.007
-0.162,0.302,-1.083,-11.230,39.612,70.190
-0.163,0.295,-1.058,-8.850,35.828,69.397
-0.174,0.311,-1.041,-7.019,32.898,69.153
-0.209,0.308,-1.024,-8.545,30.640,69.885
-0.240,0.306,-1.041,-8.423,30.457,72.205
-0.247,0.395,-1.099,-6.287,33.447,75.867
-0.264,0.432,-1.175,-12.451,32.288,77.942
-0.284,0.437,-1.223,-13.184,25.757,79.041
-0.297,0.442,-1.222,-9.888,18.005,79.651
-0.311,0.432,-1.217,-8.484,12.146,79.590
-0.327,0.409,-1.217,-8.911,7.568,78.430
-0.329,0.405,-1.231,-9.094,3.723,76.660
-0.316,0.391,-1.249,-8.423,-0.488,73.853
-0.308,0.364,-1.245,-7.385,-5.188,71.533
-0.301,0.349,-1.226,-5.310,-9.644,71.960
-0.295,0.347,-1.212,-3.723,-13.184,74.341
-0.294,0.354,-1.207,-2.502,-15.747,76.904
-0.298,0.359,-1.205,-0.061,-18.188,78.491
-0.306,0.354,-1.193,4.333,-19.958,79.407
-0.312,0.357,-1.186,9.521,-20.203,80.444
-0.312,0.359,-1.190,13.672,-19.409,81.238
-0.306,0.360,-1.207,17.273,-18.921,81.848
-0.293,0.362,-1.237,20.142,-19.714,81.665
-0.266,0.353,-1.266,21.973,-23.254,80.261
-0.246,0.331,-1.285,22.217,-29.175,78.552
-0.234,0.310,-1.296,19.958,-36.865,77.698
-0.227,0.321,-1.285,17.456,-45.898,78.552
-0.232,0.341,-1.270,15.991,-54.016,79.895
-0.254,0.366,-1.265,14.832,-60.913,81.726
-0.282,0.396,-1.251,14.771,-65.613,85.083
-0.308,0.438,-1.225,16.968,-67.688,88.196
-0.329,0.484,-1.195,20.569,-67.261,88.867
-0.345,0.535,-1.202,23.621,-65.125,86.487
-0.346,0.563,-1.209,24.475,-64.026,81.787
-0.346,0.575,-1.201,25.879,-65.979,75.989
-0.345,0.587,-1.184,27.466,-70.251,70.129
-0.344,0.599,-1.160,26.733,-75.867,65.002
-0.335,0.610,-1.133,23.560,-81.482,60.852
-0.331,0.614,-1.098,20.508,-86.792,56.885
-0.328,0.606,-1.037,18.738,-91.187,52.673
-0.314,0.602,-0.988,17.395,-93.201,49.377
-0.294,0.610,-0.966,15.686,-92.590,46.936
-0.287,0.615,-0.950,13.977,-91.064,45.715
-0.284,0.630,-0.953,13.123,-89.539,44.922
-0.276,0.640,-0.963,13.672,-88.257,43.030
-0.284,0.641,-0.963,15.015,-87.097,40.161
-0.290,0.646,-0.961,18.005,-85.815,36.682
-0.285,0.657,-0.943,20.203,-84.290,32.532
-0.281,0.663,-0.925,22.888,-82.886,27.649
-0.280,0.665,-0.901,25.574,-81.421,23.071
-0.266,0.667,-0.864,27.405,-79.468,19.531
-0.245,0.675,-0.840,28.259,-76.721,16.541
-0.228,0.677,-0.832,29.419,-73.975,12.817
-0.208,0.670,-0.838,29.846,-71.899,8.301
-0.184,0.654,-0.840,29.541,-70.557,4.211
-0.166,0.638,-0.829,29.724,-70.068,0.244
-0.146,0.634,-0.825,29.724,-69.885,-2.808
-0.122,0.632,-0.826,28.870,-69.031,-4.089
-0.105,0.632,-0.819,28.931,-67.993,-4.517
-0.099,0.640,-0.810,29.724,-66.467,-4.211

0.502,0.477,-0.742,-9.033,-5.859,-12.268
0.526,0.402,-0.662,-11.047,-5.920,-11.169
0.550,0.381,-0.722,-10.437,-5.859,-5.615
0.532,0.375,-0.752,-13.000,-4.395,2.014
0.502,0.408,-0.732,-16.846,-4.822,10.071
0.471,0.474,-0.720,-19.531,-5.676,14.771
0.449,0.524,-0.723,-21.240,-5.737,14.038
0.446,0.548,-0.743,-22.339,-5.554,8.484
0.451,0.549,-0.759,-22.156,-5.249,1.404
0.445,0.532,-0.745,-20.508,-5.249,-4.578
0.436,0.499,-0.739,-18.005,-4.150,-9.155
0.451,0.468,-0.742,-14.587,-2.319,-11.475
0.491,0.453,-0.732,-9.460,0.000,-11.230
0.498,0.471,-0.712,-4.639,3.540,-8.728
0.464,0.494,-0.710,-3.235,7.812,-5.798
0.439,0.518,-0.706,-1.831,10.498,-4.272
0.426,0.534,-0.708,0.427,11.414,-4.211
0.421,0.553,-0.723,2.319,11.169,-4.761
0.485,0.560,-0.609,2.991,10.071,-5.798
0.410,0.612,-0.762,3.601,9.033,-7.385
0.423,0.656,-0.747,3.235,5.310,-10.315
0.442,0.690,-0.710,3.052,3.296,-14.221
0.436,0.719,-0.651,3.296,2.747,-19.043
0.419,0.728,-0.633,1.404,4.517,-23.682
0.415,0.717,-0.651,-3.418,7.446,-28.076
0.412,0.708,-0.670,-6.592,9.399,-31.921
0.400,0.702,-0.676,-6.470,10.132,-35.034
0.388,0.691,-0.672,-5.249,10.376,-38.086
0.375,0.674,-0.668,-4.883,10.742,-40.466
0.364,0.640,-0.646,-4.089,11.475,-43.091
0.359,0.601,-0.613,-3.479,13.184,-45.898
0.355,0.557,-0.581,-2.991,15.686,-48.828
0.359,0.521,-0.565,-3.479,19.043,-51.025
0.363,0.494,-0.560,-4.639,21.912,-52.307
0.365,0.462,-0.543,-5.798,23.926,-52.368
0.356,0.420,-0.523,-7.202,25.513,-51.147
0.340,0.402,-0.505,-8.484,26.978,-48.706
0.314,0.400,-0.477,-9.949,28.992,-44.861
0.273,0.418,-0.468,-12.512,31.982,-41.016
0.226,0.435,-0.467,-16.602,35.828,-38.879
0.177,0.470,-0.481,-20.752,39.734,-39.001
0.144,0.487,-0.505,-24.536,42.969,-42.358
0.135,0.479,-0.550,-26.978,45.410,-47.791
0.158,0.421,-0.603,-27.771,46.997,-54.321
0.192,0.337,-0.626,-26.978,48.340,-60.486
0.218,0.267,-0.620,-23.743,50.049,-64.697
0.228,0.214,-0.583,-18.860,53.284,-67.017
0.212,0.170,-0.538,-15.442,58.350,-66.895
0.187,0.156,-0.521,-14.526,64.514,-64.331
0.162,0.176,-0.516,-14.465,70.374,-59.875
0.138,0.213,-0.514,-14.954,75.623,-55.908
0.115,0.222,-0.536,-17.883,80.261,-54.016
0.098,0.195,-0.557,-23.010,83.801,-54.688
0.089,0.149,-0.577,-26.062,86.304,-57.617
0.093,0.073,-0.587,-27.100,87.891,-61.340
0.104,-0.009,-0.600,-28.442,89.233,-63.538
0.117,-0.089,-0.631,-30.151,90.881,-63.354
0.127,-0.149,-0.673,-30.823,92.712,-59.143
0.128,-0.199,-0.710,-31.677,94.421,-51.941
0.123,-0.232,-0.766,-32.959,96.375,-43.152
0.134,-0.240,-0.852,-32.410,99.121,-33.630
0.154,-0.231,-0.924,-30.640,101.929,-24.658
0.162,-0.219,-0.989,-27.588,103.943,-18.005
0.168,-0.222,-1.047,-23.010,105.103,-12.573
0.169,-0.226,-1.097,-17.761,105.713,-7.996
0.160,-0.221,-1.140,-12.390,106.201,-3.296
0.159,-0.213,-1.178,-7.507,106.934,2.319
0.162,-0.182,-1.215,-1.648,107.666,7.690
0.161,-0.160,-1.236,2.014,107.361,11.902
0.160,-0.161,-1.252,2.502,105.225,15.442
0.155,-0.146,-1.261,2.319,101.135,18.982
0.152,-0.113,-1.262,3.113,96.741,22.461
0.147,-0.082,-1.254,2.686,92.896,25.208
0.132,-0.053,-1.243,1.221,88.501,27.466
0.113,-0.034,-1.223,-0.977,83.374,29.724
0.090,-0.029,-1.196,-3.479,78.613,31.982
0.064,-0.021,-1.180,-6.775,74.890,34.180
0.042,-0.006,-1.182,-9.888,72.021,36.316
0.017,0.010,-1.188,-12.451,69.519,38.452
-0.015,0.020,-1.179,-13.733,67.444,40.039
-0.050,0.042,-1.166,-13.489,66.223,41.199
-0.086,0.043,-1.146,-13.245,65.918,41.504
-0.106,0.078,-1.156,-3.967,69.153,40.833
-0.102,0.124,-1.149,3.357,75.317,39.368
-0.096,0.079,-1.152,0.732,76.538,36.865
-0.090,0.056,-1.163,1.526,73.730,37.048
-0.083,0.041,-1.168,0.244,68.848,39.673
-0.099,0.037,-1.156,-4.211,63.354,42.664
-0.118,0.053,-1.134,-9.338,57.495,45.837
-0.141,0.071,-1.135,-14.404,52.917,48.218
-0.157,0.089,-1.145,-17.639,49.683,48.950
-0.166,0.100,-1.153,-18.677,46.997,48.035
-0.170,0.087,-1.164,-17.639,44.678,46.692
-0.177,0.055,-1.170,-15.625,43.396,45.288
-0.186,0.023,-1.157,-11.719,43.030,44.800
-0.192,-0.003,-1.141,-7.019,43.213,45.227
-0.198,-0.035,-1.121,-2.197,43.640,46.326
-0.198,-0.063,-1.115,1.770,44.861,49.133
-0.194,-0.079,-1.127,3.723,45.776,53.223
-0.187,-0.068,-1.138,5.249,45.959,58.716
-0.194,-0.039,-1.142,7.324,45.105,63.843
-0.207,-0.016,-1.141,8.362,42.969,67.261
-0.219,-0.006,-1.129,7.874,40.039,69.458
-0.231,-0.004,-1.136,6.653,37.292,71.106
-0.241,-0.007,-1.173,4.700,35.339,72.449
-0.248,-0.013,-1.220,3.723,33.936,74.158
-0.256,-0.025,-1.253,5.127,32.471,76.233
-0.257,-0.031,-1.273,8.728,31.250,78.125
-0.261,-0.023,-1.282,13.550,30.334,80.139
-0.269,-0.010,-1.292,17.639,29.846,82.764
-0.266,0.003,-1.308,20.142,28.076,84.473
-0.263,0.021,-1.309,21.790,24.597,85.083
-0.262,0.020,-1.290,22.400,19.226,84.412
-0.256,0.003,-1.265,21.484,13.489,83.679
-0.250,-0.004,-1.258,19.531,8.240,84.412
-0.246,-0.003,-1.262,17.883,4.089,86.914
-0.248,-0.001,-1.266,17.090,0.183,90.271
-0.254,-0.008,-1.271,17.334,-2.991,94.116
-0.263,-0.007,-1.287,18.311,-5.188,97.656
-0.269,-0.000,-1.301,20.630,-7.202,100.464
-0.275,0.014,-1.299,24.475,-9.583,102.478
-0.281,0.042,-1.280,28.015,-13.062,103.943
-0.302,0.071,-1.262,30.090,-17.212,105.347
-0.324,0.094,-1.259,29.968,-21.545,107.056
-0.342,0.124,-1.255,28.870,-25.879,108.826
-0.356,0.166,-1.229,28.076,-29.541,110.474
-0.361,0.210,-1.208,28.442,-31.799,110.901
-0.362,0.261,-1.206,28.076,-33.264,109.436
-0.358,0.303,-1.208,27.283,-34.912,106.079
-0.346,0.328,-1.211,26.245,-37.964,101.501
-0.330,0.339,-1.208,24.780,-41.321,96.191
-0.314,0.346,-1.213,23.315,-44.678,91.003
-0.307,0.339,-1.216,22.217,-47.607,87.097
-0.304,0.337,-1.225,21.423,-50.537,83.923
-0.301,0.345,-1.239,21.057,-53.345,82.458
-0.300,0.367,-1.253,21.179,-55.420,82.458
-0.298,0.395,-1.267,20.874,-56.885,82.336
-0.300,0.431,-1.285,20.935,-58.838,81.482
-0.300,0.458,-1.279,21.179,-62.256,79.468
-0.300,0.481,-1.274,20.264,-67.322,76.965
-0.298,0.504,-1.277,19.104,-72.144,73.730
-0.302,0.530,-1.266,18.799,-76.477,69.763
-0.310,0.552,-1.240,20.020,-80.017,65.796
-0.315,0.574,-1.217,21.790,-82.092,62.012
-0.322,0.601,-1.209,24.536,-82.703,58.899
-0.332,0.629,-1.213,27.832,-82.947,55.603
-0.343,0.656,-1.203,31.677,-83.862,51.758
-0.346,0.686,-1.191,35.889,-85.571,47.119
-0.342,0.703,-1.172,40.039,-87.280,41.626

0.388,0.567,-0.745,97.656,-19.104,-18.005
0.469,0.734,-0.453,83.862,-21.484,3.235
0.387,0.970,-0.490,65.308,-19.043,16.357
0.315,1.059,-0.554,50.659,-18.433,12.817
0.348,1.090,-0.506,53.162,-24.414,-0.305
0.401,1.078,-0.465,60.242,-30.334,-13.245
0.427,1.041,-0.427,65.308,-30.518,-21.423
0.439,1.023,-0.347,78.674,-26.917,-23.621
0.437,0.996,-0.271,97.351,-19.287,-21.057
0.403,1.050,-0.207,120.544,-7.812,-14.160
0.384,1.121,-0.171,144.287,5.127,-7.629
0.350,1.144,-0.170,168.030,18.127,-6.165
0.311,1.082,-0.116,196.350,29.602,-8.301
0.266,0.972,0.015,229.065,40.710,-12.024
0.216,0.856,0.146,257.324,54.199,-14.282
0.168,0.802,0.206,275.330,69.580,-14.099
0.102,0.780,0.193,290.100,83.984,-13.794
0.089,0.809,0.258,301.758,94.177,-14.404
0.030,0.794,0.308,308.960,100.830,-17.761
-0.021,0.792,0.351,313.354,106.689,-22.888
-0.080,0.768,0.382,312.500,111.450,-29.175
-0.119,0.746,0.392,306.824,115.601,-36.377
-0.112,0.688,0.450,296.204,119.446,-44.006
-0.091,0.538,0.566,279.602,124.512,-51.453
-0.089,0.425,0.556,253.296,132.324,-54.321
-0.034,0.357,0.513,212.891,139.771,-50.232
-0.009,0.288,0.463,163.818,143.616,-41.260
0.019,0.284,0.409,115.234,144.531,-28.809
-0.006,0.369,0.263,72.449,144.348,-15.381
-0.003,0.448,0.094,32.349,140.991,-4.822
-0.002,0.462,-0.050,-2.014,135.864,1.587
-0.008,0.453,-0.170,-19.470,131.897,3.784
0.014,0.433,-0.250,-23.437,128.906,4.517
0.083,0.388,-0.349,-24.658,128.235,5.676
0.190,0.318,-0.495,-26.184,127.380,9.399
0.284,0.269,-0.594,-27.283,122.681,18.005
0.339,0.268,-0.623,-25.879,113.892,32.227
0.356,0.303,-0.614,-24.841,104.553,51.453
0.350,0.365,-0.603,-29.236,97.412,73.242
0.315,0.461,-0.621,-37.170,94.543,93.201
0.240,0.591,-0.694,-42.786,94.604,108.154
0.180,0.719,-0.788,-44.617,94.543,116.699
0.155,0.828,-0.839,-39.978,92.102,119.080
0.150,0.933,-0.839,-29.602,86.975,116.150
0.156,0.995,-0.809,-19.714,81.421,109.985
0.156,1.011,-0.765,-12.207,76.050,103.271
0.144,1.010,-0.701,-5.920,70.984,97.961
0.136,1.002,-0.619,-1.465,66.162,94.238
0.128,1.000,-0.572,0.183,61.951,91.980
0.116,0.988,-0.534,-0.916,58.167,90.759
0.106,0.991,-0.473,-2.563,53.955,89.233
0.092,1.004,-0.418,-7.629,50.964,87.280
0.084,1.026,-0.403,-16.602,50.171,84.778
0.079,1.027,-0.441,-27.466,50.293,80.811
0.070,0.999,-0.522,-36.377,48.889,75.806
0.055,0.959,-0.582,-39.063,44.861,72.327
0.058,0.938,-0.579,-36.133,38.635,71.411
0.034,0.905,-0.533,-29.907,31.128,70.435
0.020,0.876,-0.477,-22.034,25.146,71.411
0.010,0.888,-0.447,-16.785,22.095,73.364
0.007,0.913,-0.432,-14.954,20.386,74.890
-0.009,0.936,-0.464,-14.099,19.531,74.036
-0.031,0.931,-0.520,-12.329,17.822,71.716
-0.046,0.933,-0.528,-6.409,14.587,69.885
-0.063,0.918,-0.486,1.465,11.047,67.871
-0.060,0.909,-0.427,7.996,9.888,65.674
-0.063,0.897,-0.402,8.972,10.559,63.171
-0.066,0.873,-0.434,6.165,11.108,61.462
-0.060,0.872,-0.510,1.587,9.338,61.340
-0.073,0.842,-0.569,-2.930,3.296,61.035
-0.085,0.814,-0.575,-3.235,-5.188,59.814
-0.068,0.790,-0.545,-2.014,-12.634,57.800
-0.032,0.752,-0.521,-1.892,-17.517,56.030
-0.017,0.691,-0.535,-3.845,-19.470,55.481
-0.022,0.635,-0.564,-6.287,-20.935,58.167
-0.040,0.605,-0.599,-6.775,-23.987,64.636
-0.056,0.597,-0.619,-3.723,-28.748,73.303
-0.080,0.605,-0.625,1.160,-34.241,83.435
-0.102,0.625,-0.588,6.531,-39.856,94.482
-0.133,0.688,-0.556,10.010,-43.762,105.591
-0.171,0.765,-0.545,8.240,-45.715,115.417
-0.213,0.838,-0.572,4.028,-46.814,121.948
-0.260,0.908,-0.603,-1.526,-49.438,124.878
-0.302,0.965,-0.617,-7.446,-54.138,124.634
-0.334,0.991,-0.627,-13.000,-60.303,121.094
-0.376,0.980,-0.626,-16.479,-66.467,115.845
-0.377,0.993,-0.619,-14.648,-69.885,111.694
-0.385,1.002,-0.607,-15.259,-72.083,109.680
-0.405,1.012,-0.625,-17.761,-74.829,110.413
-0.425,1.076,-0.643,-21.423,-78.491,114.929
-0.445,1.127,-0.681,-28.076,-83.435,119.690
-0.480,1.157,-0.729,-31.128,-88.806,122.559
-0.526,1.193,-0.741,-28.442,-93.567,124.634
-0.575,1.247,-0.727,-23.987,-96.619,128.235
-0.611,1.322,-0.718,-18.311,-97.107,132.446
-0.629,1.394,-0.726,-13.794,-96.741,134.888
-0.643,1.466,-0.753,-8.301,-95.947,133.545
-0.651,1.500,-0.784,-2.747,-95.703,128.174
-0.663,1.522,-0.797,2.441,-96.680,119.629
-0.690,1.540,-0.803,7.019,-98.999,108.765
-0.706,1.517,-0.796,11.719,-102.112,95.947
-0.695,1.490,-0.765,17.334,-105.408,82.825
-0.675,1.458,-0.727,22.583,-108.398,70.313
-0.651,1.417,-0.695,26.306,-110.535,59.814
-0.628,1.391,-0.705,28.870,-112.549,51.453
-0.605,1.353,-0.692,31.311,-116.394,45.288
-0.593,1.331,-0.625,36.316,-122.314,40.710
-0.587,1.340,-0.520,39.673,-127.136,37.109
-0.589,1.361,-0.426,37.903,-128.479,33.203
-0.602,1.367,-0.365,30.762,-126.099,27.588
-0.621,1.362,-0.319,21.362,-121.277,19.470
-0.623,1.360,-0.275,10.010,-114.929,8.789
-0.611,1.349,-0.261,-3.479,-108.032,-3.967
