aX,aY,aZ,gX,gY,gZ
0.341,-0.111,-0.992,3.174,-2.686,21.118
0.417,-0.051,-0.844,9.583,-2.502,26.672
0.338,0.027,-0.851,11.230,5.615,30.090
0.315,0.031,-0.873,10.498,12.817,27.588
0.316,0.038,-0.861,16.113,16.113,21.790
0.309,0.029,-0.865,22.400,18.738,15.137
0.304,0.031,-0.881,23.743,20.752,10.803
0.283,0.074,-0.923,19.531,20.996,8.545
0.255,0.127,-0.999,11.902,19.165,5.371
0.262,0.124,-1.050,5.310,14.038,-0.793
0.314,0.056,-1.068,2.319,7.507,-6.287
0.366,0.026,-1.091,1.221,2.563,-7.568
0.401,0.058,-1.154,-0.916,-1.038,-4.517
0.412,0.115,-1.131,-2.136,-5.798,-2.686
0.427,0.126,-1.128,-2.686,-9.644,-4.333
0.475,0.098,-1.129,1.160,-13.916,-8.789
0.524,0.050,-1.185,5.920,-19.043,-13.733
0.583,-0.142,-1.216,8.362,-22.034,-15.625
0.608,-0.344,-1.322,14.893,-24.597,-11.169
0.711,-0.450,-1.363,21.240,-31.250,-0.122
0.748,-0.504,-1.352,26.978,-37.964,14.954
0.718,-0.476,-1.345,31.677,-45.349,32.959
0.680,-0.438,-1.263,25.940,-54.932,50.964
0.637,-0.442,-1.191,9.827,-60.791,63.904
0.565,-0.464,-1.129,-1.587,-60.242,70.251
0.502,-0.432,-1.056,-4.761,-52.490,69.824
0.437,-0.406,-0.968,-1.587,-39.368,62.134
0.377,-0.398,-0.869,2.625,-23.010,49.500
0.327,-0.378,-0.775,6.714,-5.554,35.889
0.269,-0.346,-0.683,8.240,11.780,22.827
0.237,-0.346,-0.612,4.333,27.344,11.108
0.223,-0.372,-0.572,-5.981,38.086,2.136
0.208,-0.396,-0.563,-20.142,42.603,-2.380
0.188,-0.438,-0.578,-32.410,39.124,-1.404
0.225,-0.447,-0.553,-38.330,26.672,8.423
0.224,-0.450,-0.468,-47.546,10.986,26.917
0.107,-0.460,-0.398,-65.369,2.747,41.565
0.018,-0.403,-0.393,-79.590,5.859,46.692
-0.023,-0.327,-0.414,-84.290,15.564,45.105
-0.070,-0.273,-0.404,-82.031,25.940,39.978
-0.106,-0.228,-0.383,-76.965,36.316,34.241
-0.111,-0.198,-0.372,-72.449,45.898,29.785
-0.117,-0.185,-0.374,-70.313,54.077,27.466
-0.116,-0.183,-0.358,-69.092,60.059,27.100
-0.111,-0.193,-0.328,-69.885,64.819,28.931
-0.109,-0.193,-0.298,-73.303,68.787,32.837
-0.109,-0.157,-0.289,-79.712,71.472,39.551
-0.130,-0.110,-0.264,-87.891,71.960,48.523
-0.179,0.000,-0.239,-96.558,71.228,58.594
-0.242,0.142,-0.208,-106.140,71.472,66.284
-0.298,0.273,-0.182,-115.417,73.608,68.054
-0.338,0.364,-0.169,-124.634,77.332,62.622
-0.365,0.410,-0.144,-132.935,82.703,52.429
-0.390,0.458,-0.145,-137.512,91.003,40.588
-0.407,0.497,-0.187,-139.038,102.661,28.076
-0.421,0.508,-0.240,-135.315,115.723,15.076
-0.436,0.526,-0.304,-123.901,130.066,3.479
-0.463,0.563,-0.384,-105.530,145.691,-5.859
-0.501,0.594,-0.426,-82.764,160.217,-14.771
-0.544,0.611,-0.433,-61.096,172.729,-23.865
-0.597,0.657,-0.462,-48.096,183.594,-31.433
-0.667,0.730,-0.506,-44.556,191.772,-39.246
-0.721,0.800,-0.575,-47.852,196.350,-50.110
-0.757,0.825,-0.652,-55.359,198.181,-64.575
-0.808,0.799,-0.678,-62.195,199.585,-80.139
-0.846,0.770,-0.822,-67.261,203.918,-94.543
-0.896,0.726,-0.965,-65.674,206.665,-106.812
-0.961,0.665,-1.134,-65.247,207.214,-115.723
-1.013,0.580,-1.371,-66.406,206.238,-123.230
-1.020,0.450,-1.592,-60.974,203.064,-132.080
-1.001,0.309,-1.708,-46.326,195.679,-140.869
-0.992,0.205,-1.756,-33.997,188.477,-146.423
-0.963,0.175,-1.896,-22.888,183.228,-147.705
-0.971,0.161,-1.990,-8.972,170.959,-148.315
-0.978,0.091,-2.045,-4.272,154.480,-150.696
-0.960,0.040,-2.087,0.610,136.047,-150.330
-0.962,-0.024,-2.151,4.822,118.652,-147.156
-0.968,-0.082,-2.211,11.353,103.027,-144.897
-0.969,-0.119,-2.246,21.545,88.562,-144.470
-0.957,-0.142,-2.280,30.762,73.914,-144.409
-0.934,-0.185,-2.301,34.729,57.434,-143.921
-0.921,-0.291,-2.213,37.781,39.307,-142.517
-0.899,-0.363,-2.108,41.992,25.146,-138.672
-0.884,-0.370,-2.103,40.405,16.479,-132.080
-0.908,-0.388,-2.142,33.264,6.409,-124.695
-0.934,-0.400,-2.120,28.992,-8.667,-118.103
-0.987,-0.398,-2.027,30.762,-25.696,-114.014
-1.037,-0.386,-1.914,33.447,-38.330,-112.732
-1.068,-0.365,-1.859,32.227,-45.654,-114.441
-1.073,-0.400,-1.823,27.832,-51.392,-118.530
-1.061,-0.459,-1.759,24.231,-58.167,-121.643
-1.026,-0.499,-1.717,20.020,-64.758,-121.460
-1.002,-0.546,-1.692,14.343,-70.862,-118.347
-0.977,-0.597,-1.673,10.376,-77.087,-114.014
-0.955,-0.635,-1.638,9.644,-83.496,-109.131
-0.921,-0.669,-1.592,11.230,-88.684,-104.797
-0.888,-0.709,-1.567,13.916,-92.590,-100.159
-0.874,-0.739,-1.524,16.785,-96.558,-94.666
-0.860,-0.736,-1.509,18.860,-100.159,-88.379
-0.852,-0.753,-1.521,19.958,-103.882,-82.703
-0.825,-0.788,-1.528,20.996,-109.314,-77.942
-0.807,-0.814,-1.506,22.339,-116.699,-73.059
-0.781,-0.803,-1.487,24.170,-124.207,-65.491
-0.738,-0.794,-1.495,26.123,-130.188,-55.115
-0.714,-0.790,-1.459,30.090,-135.925,-43.213
-0.707,-0.729,-1.380,37.048,-141.418,-31.067
-0.707,-0.635,-1.296,41.260,-145.813,-20.996
-0.727,-0.557,-1.212,40.344,-149.353,-13.794
-0.722,-0.476,-1.155,36.255,-151.306,-9.766
-0.695,-0.427,-1.138,30.884,-151.306,-9.521
-0.646,-0.414,-1.114,28.259,-150.269,-11.475
-0.589,-0.456,-1.078,31.067,-149.231,-13.306
-0.524,-0.489,-1.045,37.964,-147.095,-12.207
-0.479,-0.511,-1.028,43.030,-142.944,-5.554
-0.451,-0.501,-1.019,46.265,-138.367,4.578
-0.428,-0.431,-1.033,48.767,-135.010,14.893
-0.413,-0.395,-1.026,50.049,-134.644,21.973
-0.404,-0.356,-0.998,49.988,-136.963,26.733
-0.397,-0.272,-0.959,47.363,-140.076,31.128
-0.389,-0.196,-0.911,42.725,-142.517,33.630
-0.366,-0.174,-0.887,37.720,-143.494,33.081
-0.324,-0.191,-0.890,34.363,-141.968,33.386
-0.277,-0.203,-0.894,36.560,-137.085,36.865
-0.257,-0.171,-0.911,44.739,-129.944,42.297
-0.252,-0.120,-0.932,53.101,-122.742,48.523
-0.253,-0.047,-0.893,61.523,-116.638,53.711
-0.249,0.035,-0.835,68.237,-111.023,55.359
-0.238,0.105,-0.786,68.359,-106.384,53.040
-0.206,0.157,-0.760,62.256,-103.638,48.401
-0.157,0.147,-0.719,54.199,-102.478,43.030
-0.119,0.139,-0.694,47.424,-101.196,39.856
-0.097,0.145,-0.686,40.833,-99.976,39.551
-0.085,0.160,-0.661,34.668,-99.548,40.710
-0.083,0.187,-0.622,30.151,-98.999,42.236
-0.078,0.209,-0.595,25.696,-98.083,42.603
-0.072,0.204,-0.549,21.301,-96.985,41.992
-0.072,0.230,-0.509,18.433,-95.154,41.687
-0.065,0.259,-0.459,15.015,-92.773,40.771
-0.050,0.267,-0.408,9.766,-90.759,38.513
-0.024,0.272,-0.373,3.113,-89.294,36.682
0.001,0.264,-0.330,-3.601,-87.769,35.950
0.028,0.271,-0.305,-8.850,-84.412,37.109
0.053,0.281,-0.267,-9.216,-79.102,39.673
0.069,0.316,-0.245,-6.531,-71.960,42.419
0.079,0.345,-0.249,-4.700,-63.538,44.373
0.089,0.354,-0.231,-3.235,-56.152,45.166
0.108,0.387,-0.224,-2.197,-48.706,45.166
0.120,0.438,-0.248,-4.333,-41.809,45.837
0.133,0.478,-0.286,-8.484,-36.194,45.227

0.500,0.208,-0.995,-26.672,-11.597,35.583
0.448,0.239,-0.969,-32.288,-7.874,40.527
0.444,0.303,-1.013,-37.109,-13.184,39.368
0.354,0.246,-1.074,-40.710,-22.339,30.029
0.379,0.173,-1.088,-47.241,-37.170,17.456
0.408,0.015,-1.091,-55.603,-50.598,10.986
0.432,-0.085,-1.142,-58.655,-57.373,14.221
0.382,-0.046,-1.110,-51.331,-60.059,23.865
0.316,0.048,-0.972,-38.818,-58.838,31.189
0.276,0.089,-0.858,-29.724,-52.246,31.250
0.273,0.105,-0.800,-24.902,-41.443,27.344
0.275,0.097,-0.735,-19.714,-29.480,21.851
0.271,0.086,-0.695,-14.587,-17.090,16.602
0.279,0.071,-0.655,-8.118,-7.019,10.803
0.278,0.006,-0.572,-1.587,0.000,4.639
0.268,-0.062,-0.477,5.981,6.592,1.038
0.244,-0.102,-0.432,12.329,14.160,0.488
0.251,-0.076,-0.421,16.418,20.813,1.404
0.153,-0.071,-0.385,13.916,27.344,2.258
0.138,-0.010,-0.336,2.502,34.546,5.066
0.078,0.061,-0.301,-19.958,42.175,6.348
0.037,0.171,-0.320,-48.645,51.270,4.150
0.003,0.236,-0.328,-80.322,58.655,-3.662
-0.028,0.215,-0.326,-109.924,64.331,-15.686
-0.031,0.182,-0.359,-129.089,70.251,-27.283
-0.006,0.152,-0.422,-137.756,77.515,-34.424
0.008,0.139,-0.477,-134.827,85.022,-35.583
0.018,0.141,-0.479,-120.239,92.041,-32.410
0.005,0.183,-0.446,-101.929,99.548,-27.161
-0.022,0.233,-0.410,-85.510,108.032,-22.766
-0.043,0.293,-0.422,-75.684,115.540,-20.325
-0.044,0.295,-0.438,-73.181,119.080,-19.958
-0.028,0.268,-0.450,-72.510,119.385,-19.653
-0.011,0.223,-0.455,-70.923,118.774,-17.395
0.009,0.176,-0.430,-67.993,119.934,-12.634
0.002,0.196,-0.442,-63.782,123.779,-5.188
-0.046,0.262,-0.489,-60.791,128.418,3.052
-0.115,0.321,-0.497,-57.861,130.920,8.484
-0.198,0.403,-0.497,-52.185,133.667,8.850
-0.280,0.490,-0.499,-46.875,138.367,4.578
-0.359,0.543,-0.499,-45.349,144.104,-3.174
-0.420,0.577,-0.571,-50.232,149.658,-12.817
-0.443,0.545,-0.722,-60.608,154.297,-24.963
-0.422,0.457,-0.884,-68.604,156.067,-38.086
-0.391,0.360,-0.993,-67.505,155.640,-48.279
-0.370,0.279,-1.051,-57.861,154.907,-53.345
-0.357,0.234,-1.087,-43.762,156.189,-52.368
-0.359,0.267,-1.096,-28.320,159.607,-47.424
-0.418,0.289,-1.102,-17.151,163.940,-41.809
-0.444,0.397,-1.118,-1.892,166.016,-38.635
-0.513,0.475,-1.087,9.338,161.865,-40.222
-0.577,0.483,-1.087,1.953,157.227,-48.767
-0.590,0.431,-1.190,-16.113,155.090,-62.439
-0.557,0.354,-1.363,-29.663,152.283,-75.684
-0.516,0.240,-1.550,-36.743,146.362,-84.595
-0.480,0.146,-1.680,-32.471,138.611,-87.036
-0.455,0.074,-1.691,-16.296,131.836,-84.595
-0.429,0.030,-1.777,1.953,129.822,-80.566
-0.414,0.052,-1.838,23.987,126.953,-77.026
-0.423,0.044,-1.813,42.053,120.056,-75.134
-0.416,0.039,-1.771,53.223,112.061,-73.364
-0.411,0.069,-1.731,61.340,102.966,-69.092
-0.428,0.065,-1.621,66.528,93.201,-63.721
-0.457,0.083,-1.556,68.909,85.327,-58.228
-0.487,0.138,-1.585,62.561,78.979,-51.758
-0.543,0.176,-1.645,52.551,70.190,-46.448
-0.599,0.201,-1.689,42.175,56.519,-44.006
-0.641,0.219,-1.681,33.386,39.734,-44.067
-0.679,0.209,-1.609,27.283,23.682,-47.119
-0.698,0.187,-1.552,20.508,11.353,-51.758
-0.684,0.148,-1.528,12.634,3.479,-55.847
-0.659,0.075,-1.549,7.568,-0.793,-59.143
-0.622,-0.019,-1.551,6.531,-3.601,-60.364
-0.606,-0.096,-1.546,8.545,-6.531,-58.289
-0.595,-0.122,-1.611,7.141,-9.827,-51.514
-0.612,-0.126,-1.707,3.479,-14.648,-41.565
-0.658,-0.097,-1.769,4.272,-22.217,-31.677
-0.705,-0.041,-1.811,8.789,-31.860,-25.269
-0.726,0.006,-1.821,11.719,-44.006,-23.437
-0.741,0.028,-1.782,13.184,-57.861,-25.330
-0.767,0.028,-1.706,14.771,-70.923,-30.151
-0.773,0.015,-1.645,13.794,-80.872,-36.499
-0.755,-0.036,-1.606,9.277,-88.135,-43.762
-0.722,-0.104,-1.600,5.493,-93.262,-50.110
-0.681,-0.170,-1.607,5.615,-96.741,-52.979
-0.644,-0.223,-1.592,11.353,-99.182,-52.185
-0.613,-0.234,-1.542,21.667,-100.464,-48.462
-0.585,-0.235,-1.459,32.410,-100.464,-43.335
-0.567,-0.221,-1.395,39.795,-99.548,-38.635
-0.554,-0.206,-1.351,43.213,-98.145,-35.156
-0.541,-0.184,-1.326,43.884,-97.900,-32.715
-0.535,-0.176,-1.293,44.373,-98.938,-30.823
-0.515,-0.167,-1.258,45.410,-100.281,-29.541
-0.492,-0.159,-1.233,45.044,-101.379,-28.748
-0.474,-0.179,-1.193,43.945,-103.210,-28.442
-0.440,-0.199,-1.156,42.542,-105.408,-27.222
-0.402,-0.225,-1.092,40.771,-107.544,-24.658
-0.361,-0.245,-1.068,38.452,-108.459,-20.630
-0.323,-0.230,-1.058,34.607,-108.398,-14.893
-0.317,-0.217,-1.005,34.302,-109.253,-8.911
-0.318,-0.180,-0.972,33.447,-109.741,-4.883
-0.320,-0.156,-0.974,31.311,-108.826,-2.075
-0.302,-0.172,-1.000,29.053,-107.361,-0.244
-0.280,-0.194,-1.018,29.602,-106.445,2.075
-0.257,-0.227,-1.032,34.180,-105.713,6.348
-0.244,-0.241,-1.018,41.443,-104.492,13.672
-0.238,-0.193,-1.008,48.767,-102.295,23.437
-0.243,-0.113,-0.972,55.908,-99.365,32.654
-0.244,-0.040,-0.930,61.890,-96.375,37.537
-0.219,0.005,-0.884,65.125,-93.628,38.208
-0.188,0.044,-0.822,67.017,-91.187,37.964
-0.158,0.076,-0.816,66.040,-88.562,38.025
-0.126,0.066,-0.828,60.608,-87.280,38.696
-0.117,0.083,-0.840,55.481,-87.952,40.405
-0.120,0.112,-0.857,51.453,-89.661,42.542
-0.123,0.142,-0.864,46.326,-92.651,43.884
-0.120,0.172,-0.853,41.870,-95.886,44.495
-0.111,0.204,-0.829,39.124,-97.717,44.189
-0.098,0.213,-0.792,38.391,-97.839,43.518
-0.086,0.206,-0.758,38.452,-95.886,42.358
-0.070,0.222,-0.747,38.208,-92.529,42.053
-0.069,0.217,-0.723,38.574,-89.233,42.114
-0.055,0.229,-0.710,39.429,-86.792,42.725
-0.052,0.226,-0.677,38.391,-85.449,43.640
-0.059,0.253,-0.669,34.729,-85.571,45.471
-0.057,0.268,-0.633,29.602,-87.158,47.119
-0.055,0.256,-0.596,25.452,-88.623,47.363
-0.038,0.221,-0.582,23.499,-87.280,48.462
-0.032,0.211,-0.566,24.536,-83.740,51.025
-0.041,0.244,-0.542,26.978,-79.651,54.565
-0.054,0.287,-0.494,29.175,-75.989,57.678
-0.059,0.336,-0.448,30.762,-72.144,59.021
-0.056,0.380,-0.401,30.945,-67.200,57.983
-0.052,0.404,-0.359,28.870,-62.317,55.542
-0.035,0.437,-0.340,23.376,-58.655,52.856
-0.007,0.475,-0.328,15.442,-56.213,50.415
0.021,0.506,-0.285,8.362,-54.932,47.974
0.047,0.553,-0.238,3.235,-52.551,45.898
0.081,0.595,-0.221,-2.869,-47.546,44.006
0.114,0.636,-0.226,-7.629,-40.405,42.786
0.134,0.716,-0.250,-9.033,-31.921,42.419
0.142,0.779,-0.261,-8.911,-23.743,41.565
0.139,0.830,-0.284,-9.094,-16.479,39.001
0.135,0.880,-0.342,-12.695,-10.437,35.095
0.135,0.891,-0.403,-19.775,-6.836,30.090
0.140,0.865,-0.492,-27.893,-4.822,24.841
0.162,0.809,-0.592,-33.569,-3.723,20.813
0.180,0.769,-0.653,-34.424,-3.418,19.836
0.178,0.774,-0.717,-30.823,-2.625,21.484

0.415,0.218,-1.073,-23.926,-14.587,20.447
0.448,0.321,-0.960,-58.777,-31.494,35.706
0.336,0.415,-1.049,-69.214,-37.476,39.795
0.318,0.396,-1.083,-68.359,-47.180,30.396
0.339,0.276,-1.053,-60.181,-57.800,17.456
0.394,0.102,-1.025,-55.237,-65.674,10.803
0.400,0.053,-1.038,-55.786,-69.336,17.029
0.361,0.086,-1.006,-53.101,-69.702,27.954
0.309,0.111,-0.940,-44.006,-65.552,34.851
0.275,0.146,-0.849,-31.189,-57.617,35.889
0.262,0.184,-0.789,-22.522,-47.729,33.447
0.253,0.185,-0.754,-18.311,-37.720,28.992
0.247,0.164,-0.722,-15.808,-28.564,23.560
0.243,0.151,-0.700,-12.329,-21.179,18.250
0.238,0.112,-0.652,-6.531,-15.869,12.634
0.208,0.096,-0.564,1.099,-11.780,7.690
0.159,0.100,-0.515,6.958,-6.897,4.150
0.139,0.077,-0.537,6.653,-1.770,-0.122
0.130,0.040,-0.573,-0.610,2.197,-3.052
0.138,0.042,-0.518,-16.663,4.700,-1.404
0.112,0.185,-0.442,-36.743,7.019,4.944
0.036,0.299,-0.397,-63.843,12.268,8.850
-0.004,0.378,-0.373,-93.201,18.188,5.798
-0.036,0.395,-0.397,-120.483,24.292,-4.700
-0.031,0.391,-0.426,-136.902,30.823,-18.860
-0.019,0.356,-0.419,-142.517,37.354,-32.166
-0.002,0.337,-0.429,-140.381,45.715,-41.443
0.023,0.308,-0.449,-131.531,56.213,-46.021
0.047,0.258,-0.450,-115.112,68.726,-46.692
0.047,0.254,-0.449,-95.093,83.374,-42.664
0.025,0.320,-0.469,-78.552,97.473,-35.339
-0.017,0.413,-0.491,-68.970,106.812,-29.724
-0.054,0.473,-0.467,-67.383,109.680,-28.748
-0.083,0.489,-0.433,-72.144,109.131,-31.616
-0.100,0.490,-0.430,-82.458,108.765,-36.194
-0.115,0.478,-0.463,-94.421,110.168,-41.565
-0.131,0.467,-0.516,-104.065,113.281,-48.401
-0.149,0.448,-0.574,-110.718,116.882,-56.091
-0.158,0.401,-0.621,-113.708,120.239,-63.721
-0.151,0.340,-0.648,-111.633,124.023,-69.336
-0.142,0.302,-0.693,-106.628,128.479,-71.655
-0.142,0.275,-0.754,-99.243,132.874,-70.618
-0.159,0.243,-0.787,-90.088,135.681,-67.444
-0.183,0.248,-0.795,-79.163,137.390,-63.293
-0.223,0.278,-0.823,-70.862,137.817,-59.570
-0.264,0.308,-0.849,-68.115,136.414,-58.411
-0.289,0.326,-0.848,-69.763,133.362,-60.425
-0.322,0.281,-0.876,-78.064,132.385,-63.538
-0.293,0.279,-0.978,-78.247,133.423,-67.139
-0.305,0.256,-1.002,-68.542,130.432,-71.899
-0.312,0.198,-1.002,-63.843,128.784,-75.989
-0.308,0.141,-1.028,-59.021,130.188,-78.613
-0.296,0.139,-1.086,-49.438,131.958,-77.820
-0.298,0.127,-1.155,-42.236,132.263,-75.012
-0.316,0.107,-1.209,-35.950,130.554,-72.998
-0.326,0.106,-1.246,-27.893,128.052,-71.228
-0.332,0.111,-1.245,-18.555,125.732,-69.397
-0.353,0.087,-1.271,-11.902,125.854,-68.237
-0.369,0.076,-1.318,-3.418,127.197,-67.566
-0.374,0.102,-1.347,6.104,125.366,-67.200
-0.383,0.057,-1.416,7.812,122.131,-67.444
-0.400,0.010,-1.475,10.803,116.394,-64.697
-0.444,0.032,-1.513,14.771,108.215,-57.007
-0.508,0.077,-1.563,14.648,98.206,-48.340
-0.568,0.129,-1.626,10.925,86.853,-42.969
-0.600,0.135,-1.677,8.362,74.158,-42.480
-0.597,0.086,-1.701,6.409,60.852,-46.326
-0.589,0.026,-1.665,6.104,47.668,-50.537
-0.586,-0.008,-1.636,6.104,36.865,-53.345
-0.591,-0.048,-1.664,2.136,29.236,-54.260
-0.606,-0.142,-1.691,-3.113,22.766,-53.772
-0.612,-0.226,-1.744,-5.371,16.968,-50.598
-0.617,-0.234,-1.828,-5.310,11.902,-44.983
-0.647,-0.209,-1.886,-2.930,4.333,-39.429
-0.682,-0.183,-1.885,1.404,-5.920,-36.377
-0.707,-0.167,-1.871,6.409,-16.418,-36.682
-0.710,-0.182,-1.852,11.108,-26.184,-40.161
-0.698,-0.215,-1.797,16.235,-34.912,-45.471
-0.685,-0.271,-1.737,21.118,-42.175,-50.659
-0.657,-0.322,-1.715,23.621,-47.546,-53.467
-0.637,-0.367,-1.699,24.719,-51.880,-53.223
-0.637,-0.413,-1.666,26.611,-56.580,-50.598
-0.637,-0.408,-1.658,28.015,-60.791,-46.631
-0.635,-0.402,-1.662,28.076,-65.491,-42.786
-0.622,-0.412,-1.648,27.710,-71.655,-40.161
-0.618,-0.402,-1.608,28.564,-79.407,-38.696
-0.611,-0.396,-1.558,28.931,-87.097,-38.635
-0.582,-0.426,-1.503,27.710,-93.506,-39.551
-0.539,-0.465,-1.460,27.466,-98.022,-40.405
-0.501,-0.488,-1.437,29.236,-101.440,-39.978
-0.458,-0.509,-1.362,32.898,-104.370,-37.109
-0.437,-0.526,-1.271,37.048,-104.919,-32.288
-0.430,-0.496,-1.230,41.809,-102.722,-26.489
-0.434,-0.437,-1.228,43.274,-100.037,-21.912
-0.443,-0.384,-1.222,43.091,-100.342,-19.104
-0.443,-0.365,-1.163,41.992,-102.905,-18.005
-0.434,-0.375,-1.112,40.161,-105.530,-18.005
-0.397,-0.373,-1.099,34.485,-107.239,-17.456
-0.358,-0.383,-1.097,28.503,-108.704,-15.320
-0.321,-0.391,-1.062,26.978,-109.985,-10.742
-0.298,-0.386,-1.015,29.602,-110.352,-5.249
-0.276,-0.342,-0.989,31.433,-109.253,0.916
-0.271,-0.296,-0.963,31.128,-108.032,7.507
-0.275,-0.256,-0.958,28.564,-107.117,12.390
-0.268,-0.239,-0.977,25.391,-105.713,15.625
-0.250,-0.233,-0.994,23.071,-104.065,16.968
-0.230,-0.238,-0.980,23.132,-102.966,17.151
-0.203,-0.224,-0.982,23.865,-101.868,19.348
-0.171,-0.201,-0.962,25.513,-100.220,23.132
-0.157,-0.186,-0.924,28.442,-98.267,27.710
-0.146,-0.150,-0.918,29.968,-96.497,32.471
-0.135,-0.110,-0.913,28.564,-95.825,36.987
-0.130,-0.091,-0.902,26.550,-96.863,40.222
-0.125,-0.067,-0.878,24.719,-98.450,42.297
-0.119,-0.044,-0.828,23.682,-99.670,43.213
-0.113,-0.025,-0.771,21.423,-99.854,43.762
-0.099,-0.001,-0.746,16.724,-98.633,43.945
-0.087,0.003,-0.739,10.681,-96.313,44.250
-0.087,0.014,-0.741,6.653,-93.384,45.776
-0.087,0.029,-0.742,6.714,-89.722,48.096
-0.095,0.043,-0.731,9.460,-84.961,50.293
-0.101,0.076,-0.709,13.794,-79.651,52.429
-0.101,0.104,-0.701,16.602,-74.280,53.406
-0.095,0.131,-0.682,18.738,-69.885,53.528
-0.088,0.151,-0.655,19.165,-66.956,52.795
-0.074,0.166,-0.637,17.273,-64.453,51.270
-0.056,0.183,-0.627,13.367,-62.683,48.706
-0.035,0.155,-0.588,8.850,-61.707,46.021
-0.012,0.120,-0.584,4.211,-59.753,44.800
0.000,0.109,-0.632,-1.770,-56.824,46.387
0.004,0.103,-0.694,-6.958,-54.626,50.476
0.010,0.104,-0.724,-7.812,-54.138,55.237
0.006,0.139,-0.711,-2.991,-54.016,60.120
-0.001,0.189,-0.662,3.967,-52.917,63.782
-0.004,0.217,-0.590,8.179,-50.293,64.758
0.004,0.257,-0.568,6.897,-46.448,63.904
0.024,0.290,-0.573,1.709,-43.274,62.561
0.052,0.305,-0.563,-4.089,-42.236,60.852
0.083,0.315,-0.543,-7.690,-41.382,60.059
0.107,0.355,-0.526,-8.911,-39.124,60.791
0.131,0.425,-0.507,-9.888,-36.011,62.134
0.144,0.508,-0.493,-11.047,-32.288,63.354
0.156,0.610,-0.494,-12.573,-27.893,63.599
0.163,0.692,-0.507,-15.137,-23.376,61.157
0.177,0.750,-0.524,-17.639,-18.677,56.030
0.193,0.785,-0.517,-19.104,-13.916,49.316
0.212,0.821,-0.539,-21.606,-8.850,41.870
0.231,0.835,-0.598,-26.245,-4.211,34.241
0.244,0.793,-0.687,-30.212,-0.488,26.428

0.440,0.097,-0.978,-85.266,-12.573,16.724
0.429,0.038,-0.965,-90.942,-18.677,20.569
0.373,0.041,-0.991,-84.961,-22.888,18.188
0.370,0.000,-0.960,-79.834,-28.870,11.169
0.407,-0.052,-0.864,-81.482,-37.354,6.042
0.421,-0.116,-0.812,-91.797,-42.236,4.333
0.413,-0.116,-0.813,-106.445,-44.373,5.615
0.396,-0.142,-0.801,-117.920,-44.495,5.615
0.395,-0.200,-0.809,-124.023,-43.152,2.869
0.398,-0.232,-0.786,-127.808,-41.138,0.916
0.369,-0.194,-0.741,-129.944,-37.903,0.366
0.314,-0.126,-0.709,-131.348,-31.006,-3.235
0.282,-0.111,-0.694,-131.104,-21.851,-12.512
0.280,-0.203,-0.698,-127.991,-12.451,-26.123
0.300,-0.321,-0.721,-122.681,-4.639,-37.231
0.292,-0.361,-0.730,-113.586,0.793,-41.321
0.263,-0.338,-0.709,-105.286,4.272,-40.649
0.232,-0.256,-0.710,-107.483,6.226,-39.429
0.147,-0.287,-0.707,-120.483,7.751,-40.283
0.139,-0.238,-0.706,-136.719,6.165,-42.725
0.113,-0.215,-0.671,-159.729,2.625,-47.546
0.086,-0.204,-0.636,-184.998,-0.488,-54.138
0.083,-0.206,-0.626,-208.801,-2.930,-61.096
0.085,-0.239,-0.612,-228.882,-4.761,-68.542
0.096,-0.270,-0.609,-238.464,-3.601,-74.890
0.101,-0.281,-0.626,-235.291,2.502,-78.674
0.102,-0.254,-0.666,-221.924,14.465,-80.505
0.095,-0.253,-0.667,-202.087,29.175,-81.177
0.078,-0.226,-0.660,-177.612,44.739,-82.214
0.057,-0.173,-0.653,-153.870,59.631,-83.740
0.038,-0.126,-0.633,-133.728,70.923,-86.304
0.023,-0.103,-0.603,-118.347,78.613,-89.111
0.014,-0.101,-0.576,-106.628,82.031,-91.553
0.000,-0.084,-0.601,-99.243,82.520,-91.064
-0.017,-0.087,-0.635,-98.694,79.834,-89.050
-0.042,-0.115,-0.658,-101.196,75.012,-87.830
-0.060,-0.141,-0.676,-102.356,70.801,-89.172
-0.070,-0.166,-0.687,-101.318,67.749,-92.346
-0.079,-0.181,-0.693,-99.670,65.796,-96.191
-0.093,-0.198,-0.692,-96.375,64.392,-100.281
-0.107,-0.211,-0.703,-92.896,63.477,-104.675
-0.120,-0.228,-0.727,-89.722,62.073,-109.558
-0.139,-0.258,-0.751,-86.365,60.059,-114.868
-0.151,-0.291,-0.762,-80.627,57.617,-119.995
-0.162,-0.320,-0.755,-71.777,56.152,-124.695
-0.179,-0.334,-0.758,-60.425,56.763,-128.113
-0.200,-0.358,-0.779,-50.781,58.411,-130.981
-0.214,-0.397,-0.816,-44.434,58.777,-133.240
-0.238,-0.454,-0.829,-42.542,56.580,-134.033
-0.244,-0.509,-0.899,-44.800,53.467,-133.606
-0.260,-0.584,-0.905,-41.260,46.997,-132.812
-0.278,-0.659,-0.893,-39.917,41.138,-132.507
-0.281,-0.738,-0.924,-41.138,38.574,-131.653
-0.281,-0.792,-0.972,-38.452,36.255,-129.272
-0.270,-0.841,-1.023,-35.522,31.555,-125.305
-0.251,-0.898,-1.047,-34.302,23.987,-120.239
-0.233,-0.950,-1.012,-29.053,15.747,-114.197
-0.229,-0.948,-0.967,-19.165,10.864,-107.178
-0.243,-0.913,-0.940,-10.437,10.010,-99.915
-0.267,-0.880,-0.926,-7.812,10.376,-93.750
-0.283,-0.886,-0.918,-13.062,11.047,-89.417
-0.294,-0.935,-0.976,-20.569,11.292,-87.585
-0.292,-0.990,-1.013,-19.714,7.324,-87.219
-0.281,-1.021,-1.074,-17.151,0.916,-84.106
-0.279,-1.068,-1.145,-15.137,-7.446,-77.576
-0.265,-1.112,-1.197,-10.864,-17.639,-67.993
-0.260,-1.157,-1.216,-4.028,-28.198,-56.885
-0.271,-1.195,-1.192,5.249,-37.048,-44.678
-0.288,-1.193,-1.144,15.747,-43.213,-32.288
-0.327,-1.168,-1.116,23.743,-45.532,-20.630
-0.364,-1.139,-1.108,27.222,-45.715,-11.780
-0.380,-1.124,-1.115,27.527,-45.654,-6.287
-0.391,-1.106,-1.153,27.405,-46.509,-4.150
-0.370,-1.107,-1.179,25.452,-49.194,-2.502
-0.365,-1.159,-1.206,21.912,-54.077,-0.671
-0.379,-1.204,-1.202,23.621,-61.401,0.244
-0.372,-1.220,-1.160,31.982,-68.237,2.258
-0.365,-1.210,-1.116,41.870,-73.242,4.700
-0.357,-1.217,-1.076,47.485,-75.989,7.141
-0.354,-1.228,-1.038,49.194,-77.393,9.521
-0.354,-1.211,-0.994,48.767,-77.637,12.024
-0.355,-1.200,-0.947,47.241,-76.965,13.428
-0.367,-1.172,-0.933,43.884,-75.317,13.794
-0.369,-1.143,-0.942,39.001,-74.341,13.062
-0.367,-1.158,-0.950,33.020,-75.073,11.902
-0.358,-1.178,-0.966,28.870,-77.637,11.169
-0.337,-1.199,-0.963,26.306,-81.909,11.719
-0.319,-1.212,-0.954,26.611,-86.548,13.184
-0.299,-1.239,-0.927,29.236,-90.027,16.296
-0.286,-1.270,-0.886,33.569,-91.309,20.508
-0.276,-1.272,-0.857,39.307,-90.088,26.306
-0.274,-1.248,-0.827,44.922,-86.792,32.043
-0.281,-1.204,-0.818,48.462,-83.069,36.133
-0.287,-1.185,-0.802,49.377,-80.322,38.452
-0.296,-1.170,-0.807,48.767,-79.163,39.307
-0.276,-1.166,-0.825,47.852,-79.285,39.307
-0.244,-1.212,-0.832,46.814,-80.444,38.635
-0.209,-1.253,-0.834,47.729,-81.909,39.001
-0.182,-1.257,-0.829,51.025,-82.886,41.809
-0.176,-1.244,-0.795,55.725,-83.557,47.424
-0.172,-1.227,-0.728,59.631,-83.618,54.749
-0.183,-1.166,-0.706,60.974,-82.153,62.683
-0.199,-1.106,-0.698,57.556,-80.750,69.275
-0.210,-1.069,-0.692,50.720,-80.505,72.632
-0.214,-1.030,-0.704,44.250,-80.444,73.242
-0.198,-0.998,-0.714,40.955,-80.078,72.021
-0.177,-0.962,-0.715,40.466,-78.674,70.190
-0.162,-0.927,-0.714,40.222,-76.050,68.542
-0.144,-0.888,-0.722,39.856,-72.998,67.444
-0.124,-0.851,-0.725,41.016,-69.763,66.162
-0.102,-0.830,-0.712,45.288,-65.552,65.247
-0.091,-0.802,-0.699,52.063,-60.913,64.392
-0.078,-0.766,-0.683,57.007,-56.580,63.477
-0.062,-0.728,-0.678,57.983,-52.490,62.195
-0.055,-0.700,-0.668,54.993,-49.316,60.486
-0.051,-0.662,-0.682,48.462,-47.302,58.289
-0.026,-0.608,-0.705,37.903,-47.058,55.725
0.008,-0.584,-0.704,25.879,-49.072,52.856
0.043,-0.566,-0.701,14.832,-51.941,49.927
0.080,-0.552,-0.685,5.737,-55.054,48.096
0.102,-0.539,-0.656,-2.869,-57.800,47.913
0.125,-0.541,-0.641,-12.756,-59.143,49.744
0.143,-0.548,-0.623,-20.935,-59.448,52.002
0.153,-0.534,-0.613,-26.978,-58.228,54.504
0.165,-0.528,-0.603,-31.250,-55.359,56.458
0.173,-0.517,-0.599,-33.997,-51.392,58.105
0.181,-0.497,-0.610,-36.865,-46.387,59.021
0.183,-0.488,-0.621,-39.246,-41.504,59.387
0.174,-0.471,-0.629,-40.222,-37.537,59.570
0.172,-0.460,-0.625,-40.955,-34.363,59.387
0.173,-0.457,-0.625,-41.870,-31.494,58.655
0.188,-0.449,-0.623,-43.884,-28.625,57.800
0.208,-0.439,-0.622,-46.143,-25.757,56.274
0.219,-0.427,-0.617,-48.279,-22.766,54.932
0.233,-0.433,-0.604,-49.744,-20.020,53.894
0.251,-0.438,-0.612,-50.537,-17.395,53.406
0.273,-0.444,-0.636,-50.598,-15.076,54.260
0.293,-0.475,-0.640,-49.316,-13.123,56.458
0.300,-0.487,-0.632,-43.152,-10.315,60.425
0.296,-0.464,-0.616,-33.569,-6.653,65.186
0.280,-0.438,-0.596,-24.658,-2.869,69.153
0.260,-0.398,-0.579,-19.165,0.916,71.716
0.245,-0.356,-0.563,-16.052,4.395,72.571
0.236,-0.324,-0.558,-15.076,7.446,70.984
0.236,-0.296,-0.557,-15.503,9.766,67.871
0.239,-0.285,-0.553,-17.212,11.597,64.148
0.249,-0.263,-0.569,-19.226,13.550,61.218
0.249,-0.250,-0.584,-20.691,16.052,59.570
0.254,-0.231,-0.601,-20.203,18.555,58.716

0.586,-0.634,-0.906,-96.680,-6.592,34.607
0.583,-0.725,-0.824,-89.783,-12.878,36.072
0.601,-0.637,-0.709,-64.026,-17.212,34.790
0.543,-0.623,-0.585,-39.063,-10.986,30.640
0.525,-0.613,-0.559,-31.921,-3.784,26.245
0.545,-0.680,-0.637,-34.424,0.061,20.203
0.583,-0.782,-0.683,-36.987,-2.502,15.137
0.593,-0.831,-0.644,-40.894,-8.911,16.174
0.551,-0.785,-0.594,-48.584,-13.611,22.034
0.486,-0.690,-0.553,-60.913,-16.785,25.940
0.454,-0.637,-0.508,-78.491,-21.545,23.926
0.467,-0.645,-0.483,-98.633,-27.039,17.639
0.494,-0.660,-0.472,-117.554,-32.349,11.963
0.504,-0.665,-0.430,-133.484,-37.476,8.179
0.501,-0.665,-0.377,-145.386,-41.504,5.432
0.492,-0.679,-0.329,-152.649,-43.030,3.113
0.469,-0.684,-0.289,-152.832,-41.748,0.977
0.432,-0.669,-0.270,-145.691,-36.682,-0.061
0.365,-0.603,-0.263,-134.216,-29.785,-1.892
0.326,-0.567,-0.307,-121.033,-17.883,-5.798
0.266,-0.458,-0.279,-106.384,-9.644,-13.123
0.208,-0.425,-0.246,-101.196,-0.427,-23.926
0.184,-0.388,-0.265,-97.229,13.489,-34.485
0.164,-0.318,-0.337,-88.379,26.428,-45.837
0.151,-0.258,-0.370,-83.252,33.630,-59.570
0.136,-0.260,-0.391,-86.914,38.513,-74.646
0.127,-0.285,-0.400,-87.524,41.504,-89.172
0.102,-0.262,-0.421,-83.191,44.006,-101.440
0.061,-0.214,-0.458,-78.735,46.082,-111.816
0.028,-0.196,-0.487,-77.026,46.204,-121.582
0.024,-0.281,-0.427,-74.158,44.006,-131.104
0.032,-0.341,-0.373,-62.378,43.945,-139.587
0.045,-0.333,-0.354,-49.255,48.645,-145.569
0.029,-0.343,-0.375,-45.532,55.969,-149.902
0.011,-0.361,-0.428,-49.072,62.195,-152.588
0.000,-0.393,-0.478,-50.659,64.697,-155.640
-0.008,-0.419,-0.500,-45.471,64.392,-159.180
-0.032,-0.406,-0.502,-34.912,63.538,-162.170
-0.054,-0.384,-0.518,-26.550,62.927,-164.490
-0.072,-0.386,-0.556,-23.743,61.279,-167.175
-0.096,-0.408,-0.597,-22.461,57.373,-169.922
-0.118,-0.452,-0.608,-18.433,50.903,-174.011
-0.139,-0.504,-0.596,-10.254,44.434,-179.138
-0.140,-0.535,-0.596,1.282,40.649,-184.021
-0.129,-0.564,-0.604,12.817,39.612,-187.805
-0.119,-0.633,-0.617,24.170,40.649,-190.308
-0.103,-0.671,-0.658,36.987,42.358,-188.843
-0.103,-0.687,-0.693,49.377,43.091,-184.143
-0.130,-0.700,-0.691,59.998,41.321,-178.223
-0.189,-0.687,-0.679,69.885,38.269,-172.180
-0.269,-0.657,-0.646,76.660,35.034,-166.626
-0.353,-0.613,-0.619,77.942,33.447,-163.696
-0.409,-0.594,-0.618,75.134,33.691,-163.940
-0.430,-0.599,-0.670,69.397,35.522,-166.687
-0.424,-0.614,-0.742,63.538,35.767,-169.739
-0.413,-0.659,-0.788,58.716,31.982,-171.997
-0.428,-0.731,-0.813,51.453,25.757,-171.204
-0.437,-0.787,-0.845,46.326,18.921,-166.565
-0.479,-0.838,-0.835,43.335,11.658,-160.217
-0.496,-0.891,-0.846,37.231,6.775,-154.663
-0.485,-0.948,-0.911,34.424,5.371,-149.719
-0.449,-1.011,-0.997,34.851,3.967,-144.592
-0.404,-1.056,-1.066,36.377,0.122,-137.756
-0.379,-1.076,-1.110,42.603,-4.944,-127.991
-0.381,-1.052,-1.133,52.856,-10.010,-114.807
-0.404,-1.000,-1.143,64.087,-14.832,-101.440
-0.446,-0.946,-1.156,73.914,-18.982,-90.881
-0.498,-0.919,-1.145,79.529,-23.254,-84.595
-0.521,-0.969,-1.183,73.608,-26.794,-80.627
-0.538,-1.037,-1.227,69.458,-31.860,-77.637
-0.527,-1.092,-1.278,72.083,-38.635,-72.876
-0.506,-1.134,-1.335,77.271,-45.837,-65.125
-0.489,-1.161,-1.381,81.482,-53.772,-54.810
-0.485,-1.182,-1.406,84.412,-61.890,-43.274
-0.512,-1.195,-1.415,88.318,-69.580,-30.334
-0.554,-1.181,-1.405,93.384,-76.477,-16.418
-0.583,-1.175,-1.381,94.971,-82.764,-3.967
-0.603,-1.166,-1.371,93.567,-88.440,6.531
-0.607,-1.150,-1.390,93.445,-93.018,14.954
-0.596,-1.156,-1.411,94.971,-97.412,20.630
-0.593,-1.203,-1.432,97.473,-101.501,25.208
-0.583,-1.252,-1.448,103.333,-104.797,30.212
-0.577,-1.281,-1.414,112.976,-107.239,35.950
-0.587,-1.258,-1.382,126.099,-107.605,41.809
-0.597,-1.201,-1.370,135.620,-107.117,47.363
-0.616,-1.138,-1.361,138.550,-107.605,51.880
-0.623,-1.097,-1.339,138.184,-109.924,55.237
-0.617,-1.073,-1.284,138.733,-113.037,57.922
-0.618,-1.041,-1.192,141.785,-115.356,59.265
-0.603,-0.985,-1.112,141.968,-114.136,58.655
-0.579,-0.925,-1.101,135.254,-109.192,55.054
-0.554,-0.922,-1.149,121.277,-104.370,50.232
-0.518,-0.953,-1.203,105.408,-103.821,46.448
-0.491,-0.948,-1.211,96.619,-108.215,43.640
-0.458,-0.923,-1.206,95.764,-112.732,41.260
-0.423,-0.915,-1.177,97.168,-114.990,39.917
-0.404,-0.913,-1.133,99.426,-114.136,40.955
-0.389,-0.874,-1.114,104.065,-109.131,43.945
-0.373,-0.823,-1.121,107.422,-102.539,47.668
-0.360,-0.782,-1.127,110.718,-97.290,49.988
-0.350,-0.727,-1.084,116.272,-95.093,50.232
-0.344,-0.678,-1.052,116.394,-93.018,49.683
-0.333,-0.637,-1.074,114.441,-90.576,48.645
-0.299,-0.576,-1.095,114.197,-90.393,48.096
-0.266,-0.537,-1.065,114.075,-92.590,48.523
-0.241,-0.508,-1.014,114.136,-95.093,49.622
-0.202,-0.483,-0.960,112.549,-96.802,52.307
-0.172,-0.450,-0.896,107.300,-97.412,56.091
-0.160,-0.384,-0.852,99.731,-96.558,59.509
-0.152,-0.287,-0.848,90.454,-95.093,60.974
-0.143,-0.207,-0.874,79.407,-95.093,59.021
-0.122,-0.201,-0.904,67.627,-97.412,54.199
-0.080,-0.236,-0.907,58.899,-100.830,50.537
-0.030,-0.264,-0.911,54.016,-103.821,50.659
-0.009,-0.268,-0.884,50.598,-106.018,55.603
-0.010,-0.223,-0.857,48.889,-106.384,62.988
-0.014,-0.159,-0.832,48.401,-104.919,68.542
-0.021,-0.104,-0.807,48.950,-101.807,70.618
-0.003,-0.072,-0.791,49.744,-98.206,69.702
0.015,-0.044,-0.758,50.720,-94.727,67.993
0.026,-0.005,-0.744,51.819,-90.820,67.200
0.040,0.004,-0.729,51.636,-86.914,67.139
0.053,0.008,-0.719,50.232,-83.252,66.711
0.071,0.030,-0.706,48.340,-79.712,66.895
0.074,0.052,-0.695,45.837,-76.965,66.589
0.080,0.076,-0.690,41.321,-75.195,65.186
0.087,0.082,-0.658,36.865,-73.669,63.049
0.099,0.085,-0.639,33.569,-71.045,60.242
0.114,0.082,-0.620,30.396,-67.505,57.861
0.130,0.076,-0.608,26.672,-64.270,56.458
0.155,0.069,-0.603,23.804,-61.218,56.396
0.175,0.062,-0.594,23.071,-58.228,57.617
0.187,0.073,-0.583,23.804,-55.359,59.814
0.192,0.099,-0.567,23.621,-53.528,61.707
0.185,0.125,-0.534,21.179,-53.040,62.927
0.172,0.145,-0.505,16.907,-52.368,63.232
0.165,0.172,-0.521,10.986,-50.293,62.317
0.171,0.166,-0.536,4.700,-47.791,60.303
0.179,0.147,-0.527,1.282,-45.715,58.228
0.188,0.168,-0.532,0.061,-42.969,57.800
0.188,0.204,-0.531,-0.610,-40.161,59.265
0.192,0.245,-0.524,-0.732,-37.231,59.937
0.197,0.279,-0.513,0.671,-34.607,58.655
0.203,0.295,-0.505,-0.366,-31.433,56.152
0.215,0.287,-0.501,-3.662,-27.466,54.260
0.230,0.279,-0.521,-8.545,-22.827,53.406
0.239,0.293,-0.565,-12.817,-18.616,54.199
0.245,0.304,-0.579,-13.489,-15.442,55.298
0.240,0.314,-0.594,-11.658,-12.878,56.274

0.056,0.563,-1.290,-11.414,-19.043,45.776
0.034,0.605,-0.986,-14.771,-40.588,56.335
-0.047,0.700,-0.931,-17.273,-49.072,56.824
-0.071,0.660,-0.960,-17.212,-46.936,48.950
-0.029,0.490,-1.057,-10.803,-42.236,40.527
-0.023,0.413,-1.107,6.592,-38.757,38.635
-0.037,0.423,-1.047,24.536,-40.039,42.725
-0.055,0.439,-0.967,30.945,-44.678,47.791
-0.083,0.442,-0.933,31.128,-49.622,50.110
-0.071,0.391,-0.893,31.982,-54.138,48.523
-0.051,0.317,-0.815,35.034,-55.969,47.791
-0.042,0.280,-0.746,38.818,-54.443,50.476
-0.047,0.237,-0.696,42.358,-50.171,53.955
-0.088,0.208,-0.642,48.523,-44.617,57.556
-0.130,0.227,-0.550,59.143,-37.598,61.401
-0.156,0.277,-0.461,74.646,-28.137,64.575
-0.171,0.321,-0.344,91.553,-19.531,63.904
-0.183,0.338,-0.222,103.149,-12.329,61.279
-0.202,0.387,-0.127,106.079,-6.348,58.777
-0.231,0.431,-0.066,100.708,-0.183,56.763
-0.232,0.437,0.065,92.651,6.226,54.565
-0.336,0.464,-0.099,83.679,13.123,51.880
-0.285,0.469,-0.068,67.444,12.207,50.537
-0.270,0.459,-0.023,55.786,8.362,48.706
-0.252,0.434,0.027,40.710,4.883,48.340
-0.244,0.451,0.063,26.001,3.418,52.917
-0.265,0.493,0.087,13.428,4.211,59.753
-0.299,0.530,0.113,6.042,7.935,65.674
-0.326,0.571,0.150,5.737,14.771,68.665
-0.342,0.640,0.165,8.057,22.949,69.397
-0.360,0.676,0.163,7.996,31.189,69.519
-0.368,0.701,0.136,6.042,38.086,69.336
-0.375,0.710,0.086,1.465,43.152,69.580
-0.381,0.719,0.058,-3.845,45.715,70.740
-0.387,0.758,0.055,-7.202,47.302,72.571
-0.393,0.771,0.051,-9.277,50.232,73.120
-0.388,0.760,0.033,-10.681,55.664,73.120
-0.390,0.775,-0.009,-9.644,62.195,73.120
-0.409,0.765,-0.031,-6.470,68.359,74.097
-0.426,0.778,-0.039,-0.977,74.097,76.843
-0.453,0.846,-0.049,5.310,79.224,80.627
-0.466,0.905,-0.054,7.996,81.665,83.618
-0.506,0.973,0.018,9.033,80.994,85.632
-0.534,1.022,0.063,4.639,81.055,84.473
-0.587,1.033,0.065,-8.667,83.008,81.299
-0.613,1.058,-0.006,-27.466,86.365,78.003
-0.641,1.026,-0.121,-44.983,90.698,74.036
-0.666,0.986,-0.210,-52.063,95.093,70.557
-0.692,0.931,-0.278,-48.218,99.548,67.688
-0.654,0.930,-0.308,-36.011,103.699,66.772
-0.641,0.951,-0.310,-23.132,106.018,67.810
-0.671,0.974,-0.276,-15.564,106.628,69.275
-0.703,1.010,-0.250,-15.137,105.408,70.190
-0.730,1.024,-0.230,-21.301,103.455,69.031
-0.749,1.001,-0.206,-29.358,101.746,65.918
-0.737,0.995,-0.181,-38.025,100.464,62.012
-0.734,1.050,-0.199,-48.889,100.098,58.044
-0.757,1.077,-0.295,-65.369,100.891,54.138
-0.773,1.047,-0.430,-82.275,101.868,49.438
-0.777,1.012,-0.564,-89.355,102.173,43.884
-0.778,0.975,-0.631,-83.557,100.830,37.476
-0.777,0.947,-0.610,-67.505,98.816,32.043
-0.777,0.961,-0.540,-50.049,97.412,28.198
-0.817,0.928,-0.490,-41.870,97.351,25.452
-0.833,0.936,-0.471,-39.551,97.290,24.475
-0.856,0.986,-0.440,-41.382,94.360,25.085
-0.911,1.053,-0.484,-51.575,91.187,24.597
-0.988,1.085,-0.578,-64.514,87.891,22.339
-1.024,1.104,-0.706,-71.777,83.923,18.188
-1.061,1.102,-0.792,-68.909,77.759,12.268
-1.096,1.139,-0.837,-58.716,69.458,5.981
-1.127,1.198,-0.858,-46.875,60.730,-0.366
-1.156,1.224,-0.845,-34.363,52.734,-8.118
-1.162,1.181,-0.772,-20.325,48.157,-18.799
-1.174,1.014,-0.588,-10.010,49.194,-29.602
-1.148,1.054,-0.628,-15.808,55.786,-35.400
-1.151,1.113,-0.810,-39.001,58.777,-36.255
-1.183,1.089,-0.906,-51.697,51.514,-38.818
-1.197,1.062,-0.961,-49.133,41.138,-45.471
-1.184,1.019,-1.006,-44.373,32.104,-54.260
-1.160,1.014,-1.061,-40.222,23.132,-61.401
-1.138,0.999,-1.056,-33.569,13.794,-67.078
-1.132,0.934,-0.959,-22.522,6.775,-73.059
-1.095,0.904,-0.896,-14.526,5.371,-78.918
-1.061,0.839,-0.838,-13.489,7.568,-84.106
-1.016,0.820,-0.870,-15.381,11.353,-87.830
-0.985,0.766,-0.908,-16.724,13.611,-90.942
-0.958,0.713,-0.933,-13.123,12.695,-93.872
-0.917,0.683,-0.968,-10.437,9.155,-94.727
-0.862,0.634,-0.994,-10.498,2.014,-95.032
-0.812,0.594,-0.976,-10.681,-8.545,-93.872
-0.763,0.574,-0.923,-12.268,-21.179,-90.210
-0.720,0.583,-0.886,-16.235,-31.982,-85.815
-0.689,0.574,-0.832,-18.860,-39.185,-82.092
-0.666,0.566,-0.790,-16.785,-42.236,-80.078
-0.645,0.573,-0.800,-13.489,-41.504,-78.552
-0.623,0.560,-0.808,-7.690,-39.917,-77.332
-0.599,0.560,-0.818,1.221,-39.246,-75.867
-0.602,0.536,-0.799,10.376,-39.917,-74.097
-0.589,0.542,-0.821,15.991,-42.664,-71.106
-0.554,0.531,-0.838,15.259,-49.194,-67.261
-0.545,0.568,-0.797,12.085,-59.753,-62.561
-0.541,0.632,-0.722,9.521,-70.740,-58.350
-0.552,0.674,-0.670,6.348,-77.148,-56.519
-0.549,0.677,-0.677,3.235,-77.576,-58.167
-0.518,0.625,-0.720,4.639,-75.195,-62.073
-0.484,0.593,-0.730,11.536,-73.425,-64.209
-0.468,0.595,-0.677,21.484,-73.853,-63.110
-0.458,0.616,-0.631,27.710,-74.280,-60.364
-0.459,0.618,-0.628,27.161,-74.280,-58.044
-0.471,0.626,-0.611,24.719,-75.256,-56.519
-0.463,0.652,-0.596,23.254,-75.745,-55.115
-0.456,0.658,-0.603,21.362,-75.684,-55.725
-0.449,0.633,-0.636,19.897,-75.134,-57.251
-0.429,0.606,-0.662,20.752,-75.867,-58.899
-0.414,0.596,-0.623,23.499,-78.247,-59.692
-0.391,0.611,-0.571,25.391,-80.383,-59.814
-0.363,0.603,-0.568,21.973,-81.238,-60.181
-0.333,0.569,-0.581,16.479,-82.336,-59.937
-0.309,0.536,-0.569,14.832,-83.923,-58.960
-0.282,0.527,-0.549,14.832,-85.876,-56.885
-0.252,0.517,-0.531,15.076,-87.280,-54.871
-0.232,0.501,-0.499,17.334,-89.111,-52.246
-0.201,0.481,-0.480,17.151,-90.210,-49.500
-0.173,0.446,-0.455,14.648,-90.942,-47.363
-0.152,0.415,-0.425,11.536,-91.187,-44.250
-0.132,0.412,-0.413,8.301,-90.149,-38.147
-0.126,0.412,-0.428,6.348,-87.952,-30.762
-0.125,0.419,-0.442,6.775,-85.449,-23.926
-0.126,0.439,-0.442,9.094,-83.435,-18.799
-0.121,0.451,-0.461,11.292,-81.848,-15.137
-0.113,0.442,-0.472,12.024,-81.238,-11.902
-0.111,0.434,-0.452,14.343,-82.397,-9.094
-0.112,0.430,-0.392,18.860,-83.984,-6.165
-0.115,0.410,-0.324,23.926,-83.862,-3.174
-0.120,0.415,-0.292,27.710,-81.787,0.732
-0.113,0.436,-0.284,26.062,-78.735,5.920
-0.120,0.463,-0.251,23.376,-76.294,11.414
-0.135,0.541,-0.217,23.926,-74.280,16.479
-0.152,0.615,-0.172,26.184,-71.960,19.714
-0.146,0.684,-0.115,28.809,-69.275,20.081
-0.137,0.740,-0.058,30.518,-65.430,18.005
-0.130,0.753,0.014,30.518,-60.791,14.954
-0.123,0.757,0.081,29.419,-54.749,12.695
-0.106,0.786,0.105,26.123,-47.363,12.451
-0.088,0.828,0.112,21.912,-39.856,14.648
-0.092,0.875,0.120,19.409,-32.959,17.822
-0.102,0.938,0.112,18.005,-26.733,21.179
-0.108,1.003,0.077,15.320,-21.851,23.193

0.079,0.887,-0.552,-36.133,-5.493,-33.020
0.082,0.755,-0.566,-36.743,-4.639,-30.518
0.178,0.733,-0.694,-34.912,-7.629,-22.949
0.109,0.765,-0.766,-31.006,-12.817,-13.245
0.107,0.823,-0.789,-24.475,-18.860,-6.653
0.095,0.831,-0.792,-18.860,-23.865,-5.188
0.074,0.849,-0.783,-14.954,-28.870,-5.737
0.083,0.828,-0.793,-18.311,-35.034,-6.897
0.094,0.752,-0.790,-25.330,-41.443,-7.751
0.101,0.703,-0.771,-27.222,-45.715,-6.653
0.106,0.673,-0.733,-22.583,-45.654,-3.967
0.103,0.664,-0.704,-16.174,-41.992,-0.977
0.102,0.657,-0.697,-12.207,-37.415,1.831
0.083,0.642,-0.695,-11.292,-34.607,3.479
0.053,0.595,-0.691,-12.817,-34.058,4.028
0.020,0.529,-0.704,-13.550,-33.936,4.517
0.018,0.457,-0.751,-9.827,-33.020,5.737
0.030,0.388,-0.777,-3.235,-32.593,9.644
0.025,0.393,-0.753,2.197,-35.461,17.456
-0.000,0.432,-0.714,5.249,-40.955,26.245
-0.035,0.460,-0.654,5.005,-47.302,32.776
0.017,0.499,-0.503,2.380,-52.246,36.621
-0.086,0.511,-0.554,-1.221,-53.467,36.316
-0.067,0.470,-0.500,-2.258,-52.917,34.058
-0.045,0.450,-0.446,-0.732,-49.744,32.532
-0.027,0.421,-0.376,2.502,-43.884,32.227
-0.033,0.401,-0.322,5.066,-36.621,32.715
-0.025,0.389,-0.269,3.906,-29.297,35.583
-0.029,0.370,-0.258,0.549,-22.522,40.649
-0.039,0.384,-0.249,-0.549,-18.372,47.180
-0.067,0.408,-0.211,-0.061,-16.602,53.345
-0.090,0.423,-0.166,-1.526,-16.418,57.739
-0.106,0.454,-0.135,-6.958,-16.907,60.791
-0.128,0.466,-0.098,-13.794,-17.639,62.866
-0.150,0.475,-0.078,-19.958,-16.968,65.247
-0.174,0.495,-0.058,-23.987,-13.977,67.566
-0.195,0.520,-0.036,-24.963,-9.460,69.641
-0.210,0.551,-0.024,-24.780,-3.601,70.618
-0.232,0.582,-0.012,-24.231,2.991,71.655
-0.244,0.621,0.001,-24.292,9.583,72.632
-0.264,0.652,-0.001,-25.452,15.930,72.998
-0.288,0.675,0.004,-28.137,21.118,72.449
-0.296,0.698,-0.006,-34.546,26.489,72.266
-0.314,0.729,-0.031,-40.649,31.677,71.411
-0.337,0.735,-0.047,-44.739,36.255,70.007
-0.350,0.706,-0.069,-46.753,41.565,68.970
-0.358,0.689,-0.059,-44.800,47.180,69.031
-0.344,0.693,-0.076,-46.448,54.443,72.632
-0.354,0.692,-0.085,-48.767,61.646,77.271
-0.373,0.733,-0.102,-48.340,67.261,82.214
-0.397,0.775,-0.101,-48.889,70.129,85.999
-0.420,0.796,-0.059,-52.795,71.045,87.280
-0.434,0.834,-0.020,-59.814,72.876,86.365
-0.454,0.879,-0.004,-70.801,75.623,83.862
-0.482,0.906,-0.017,-82.947,79.346,78.796
-0.509,0.891,-0.037,-94.421,84.473,72.571
-0.517,0.864,-0.009,-103.149,91.675,66.467
-0.566,0.799,-0.125,-111.084,102.722,60.120
-0.534,0.841,-0.168,-104.492,110.718,59.204
-0.583,0.845,-0.178,-102.661,115.112,56.946
-0.617,0.861,-0.170,-109.924,117.004,51.270
-0.630,0.862,-0.187,-124.268,118.286,45.776
-0.647,0.843,-0.173,-137.634,118.408,39.246
-0.673,0.823,-0.171,-149.597,119.080,32.837
-0.692,0.793,-0.192,-159.302,121.277,27.771
-0.687,0.771,-0.183,-163.696,125.122,23.804
-0.735,0.735,-0.182,-166.748,133.362,19.287
-0.759,0.705,-0.299,-166.748,146.667,15.259
-0.752,0.719,-0.385,-155.762,157.166,14.587
-0.799,0.693,-0.500,-151.062,164.978,13.855
-0.830,0.685,-0.613,-147.217,169.128,14.709
-0.862,0.714,-0.725,-140.564,169.922,16.785
-0.912,0.769,-0.832,-133.606,167.053,17.090
-0.962,0.822,-0.917,-128.967,160.339,14.587
-0.996,0.842,-0.983,-126.465,150.940,8.850
-1.007,0.841,-1.037,-124.878,140.442,1.221
-1.009,0.813,-1.066,-120.789,131.165,-6.287
-1.013,0.754,-1.066,-113.403,123.718,-13.550
-1.014,0.717,-1.079,-104.919,119.202,-17.761
-1.025,0.703,-1.090,-96.741,116.150,-18.311
-1.050,0.712,-1.104,-88.257,112.549,-16.235
-1.090,0.734,-1.129,-82.092,108.032,-12.939
-1.147,0.757,-1.160,-79.285,101.624,-10.864
-1.198,0.774,-1.181,-78.369,92.712,-10.803
-1.248,0.798,-1.202,-78.674,82.520,-13.000
-1.293,0.812,-1.207,-79.041,72.021,-17.883
-1.329,0.806,-1.189,-78.857,61.829,-25.757
-1.335,0.802,-1.172,-80.505,52.673,-35.461
-1.333,0.777,-1.171,-85.083,44.922,-45.044
-1.337,0.729,-1.195,-92.224,38.330,-54.138
-1.328,0.678,-1.265,-97.473,31.372,-62.622
-1.315,0.616,-1.396,-97.351,21.484,-71.167
-1.273,0.552,-1.406,-90.393,7.263,-78.430
-1.251,0.471,-1.421,-85.449,-2.930,-85.938
-1.209,0.393,-1.420,-72.571,-9.216,-93.933
-1.146,0.336,-1.425,-56.946,-12.817,-99.304
-1.092,0.290,-1.454,-38.452,-14.648,-101.990
-1.135,0.250,-1.429,-17.761,-16.724,-103.821
-1.052,0.216,-1.363,-4.211,-18.982,-102.112
-0.987,0.195,-1.317,6.348,-20.996,-100.830
-0.966,0.135,-1.256,14.587,-23.743,-100.220
-0.956,0.099,-1.185,22.095,-27.466,-96.802
-0.946,0.125,-1.153,24.109,-31.128,-90.332
-0.943,0.152,-1.153,22.339,-34.973,-82.764
-0.935,0.166,-1.174,21.912,-38.879,-76.477
-0.944,0.186,-1.185,24.780,-43.701,-72.571
-0.948,0.192,-1.143,31.067,-49.011,-71.960
-0.946,0.221,-1.090,39.856,-52.612,-73.608
-0.933,0.232,-1.036,46.387,-54.077,-76.782
-0.908,0.225,-0.988,49.316,-54.443,-80.322
-0.879,0.193,-0.999,49.438,-54.016,-83.496
-0.849,0.125,-1.045,48.157,-54.504,-84.595
-0.807,0.074,-1.115,48.340,-57.922,-82.336
-0.764,0.065,-1.149,49.744,-65.552,-76.172
-0.745,0.098,-1.141,51.270,-76.172,-68.176
-0.743,0.142,-1.116,53.101,-86.975,-60.852
-0.740,0.176,-1.075,53.589,-95.520,-55.359
-0.756,0.186,-1.067,55.481,-100.342,-52.795
-0.758,0.206,-1.045,62.805,-100.891,-51.575
-0.742,0.251,-0.947,78.186,-97.473,-51.941
-0.708,0.321,-0.865,93.933,-89.966,-54.382
-0.666,0.374,-0.843,100.830,-81.543,-58.167
-0.617,0.366,-0.856,100.159,-77.271,-62.439
-0.565,0.351,-0.866,96.863,-78.979,-64.941
-0.534,0.379,-0.846,92.041,-85.388,-64.331
-0.528,0.416,-0.841,84.595,-93.872,-62.134
-0.491,0.431,-0.832,72.632,-102.417,-58.594
-0.456,0.443,-0.768,62.073,-109.924,-55.481
-0.425,0.476,-0.744,54.321,-114.319,-54.565
-0.385,0.500,-0.750,45.105,-116.272,-54.443
-0.349,0.495,-0.730,41.870,-117.310,-55.176
-0.326,0.483,-0.674,46.448,-116.394,-56.580
-0.298,0.482,-0.623,52.856,-112.366,-57.129
-0.277,0.481,-0.580,57.312,-106.323,-55.603
-0.259,0.480,-0.577,58.044,-100.281,-52.673
-0.234,0.476,-0.637,53.772,-95.825,-48.157
-0.215,0.492,-0.669,49.561,-95.276,-41.931
-0.220,0.544,-0.642,50.171,-97.900,-36.682
-0.227,0.605,-0.595,50.781,-100.952,-33.813
-0.223,0.639,-0.547,48.340,-103.455,-33.875
-0.212,0.645,-0.529,43.518,-104.187,-35.278
-0.189,0.632,-0.548,39.368,-103.271,-36.438
-0.186,0.594,-0.555,39.307,-102.661,-36.560
-0.176,0.578,-0.503,43.762,-101.746,-35.522
-0.168,0.581,-0.451,48.035,-99.182,-34.912
-0.152,0.594,-0.444,46.631,-95.947,-34.363
-0.139,0.589,-0.443,42.175,-94.543,-33.203
-0.128,0.580,-0.448,38.208,-95.276,-31.555
-0.119,0.566,-0.456,33.630,-97.229,-30.518

0.295,0.882,-0.517,-25.391,-24.109,-13.428
0.271,0.975,-0.413,-26.306,-22.339,-7.629
0.179,0.967,-0.486,-20.264,-14.709,-10.193
0.191,0.881,-0.555,-13.428,-11.719,-15.991
0.200,0.811,-0.572,-8.240,-14.038,-19.287
0.189,0.745,-0.529,-3.418,-17.761,-18.921
0.189,0.726,-0.544,-3.174,-20.020,-15.625
0.191,0.685,-0.567,-6.470,-22.034,-11.292
0.180,0.644,-0.609,-9.521,-24.719,-6.409
0.152,0.658,-0.626,-12.146,-29.053,-1.587
0.150,0.674,-0.608,-11.230,-31.982,0.061
0.174,0.626,-0.578,-9.216,-32.104,-1.343
0.202,0.542,-0.571,-7.385,-29.968,-1.648
0.202,0.477,-0.581,-3.174,-26.917,1.892
0.163,0.448,-0.561,3.113,-25.146,8.423
0.118,0.455,-0.520,8.850,-24.902,15.015
0.064,0.454,-0.446,12.756,-24.841,18.616
0.022,0.466,-0.423,14.099,-22.766,20.203
0.021,0.476,-0.403,13.916,-20.386,19.165
0.007,0.517,-0.381,11.536,-17.883,16.785
-0.004,0.472,-0.307,7.568,-12.756,15.564
0.005,0.495,-0.247,7.996,-8.850,15.015
-0.001,0.500,-0.188,3.784,-4.639,13.123
0.004,0.504,-0.168,-6.165,1.282,12.329
0.006,0.501,-0.173,-18.555,7.690,13.184
0.000,0.528,-0.185,-31.555,12.817,14.587
-0.014,0.490,-0.201,-43.091,15.503,14.893
0.010,0.440,-0.230,-47.974,15.137,14.954
0.055,0.398,-0.207,-52.856,13.184,19.714
0.033,0.361,-0.233,-60.913,14.465,29.724
0.022,0.431,-0.245,-57.190,15.991,42.480
-0.003,0.522,-0.202,-48.279,17.151,52.185
-0.043,0.575,-0.113,-41.077,18.860,57.251
-0.066,0.616,-0.054,-39.795,22.339,58.838
-0.072,0.640,-0.022,-44.983,27.161,59.387
-0.081,0.644,0.022,-51.636,32.410,59.753
-0.099,0.662,0.052,-56.946,39.246,60.608
-0.118,0.686,0.047,-61.951,47.729,62.500
-0.140,0.723,0.048,-65.918,56.335,64.575
-0.162,0.742,0.028,-70.374,65.430,65.186
-0.172,0.741,0.002,-71.472,75.134,64.819
-0.175,0.717,-0.035,-69.092,84.412,64.636
-0.171,0.717,-0.085,-65.247,91.675,66.833
-0.168,0.739,-0.109,-61.829,96.252,72.021
-0.187,0.781,-0.121,-58.411,98.633,78.979
-0.219,0.835,-0.122,-57.068,98.877,84.839
-0.256,0.887,-0.110,-58.044,97.839,88.318
-0.294,0.931,-0.079,-61.096,96.558,89.966
-0.349,0.975,-0.044,-65.247,97.046,89.905
-0.396,1.004,-0.034,-69.702,101.257,88.013
-0.434,1.022,-0.040,-73.242,107.971,84.839
-0.453,1.058,-0.073,-75.562,116.638,81.238
-0.472,1.085,-0.131,-75.134,125.793,78.552
-0.477,1.154,-0.148,-72.632,133.850,75.317
-0.571,1.134,-0.263,-73.975,141.357,69.885
-0.560,1.207,-0.314,-66.345,143.799,64.453
-0.581,1.213,-0.287,-63.110,141.296,55.969
-0.596,1.173,-0.275,-70.313,140.137,44.434
-0.582,1.134,-0.318,-79.163,141.663,35.828
-0.573,1.088,-0.353,-82.336,142.517,29.053
-0.573,1.062,-0.394,-83.252,143.921,24.536
-0.578,1.047,-0.440,-81.116,145.935,21.240
-0.585,1.048,-0.496,-76.538,148.071,17.944
-0.590,1.054,-0.554,-71.289,149.841,13.855
-0.597,1.045,-0.598,-66.956,149.963,9.155
-0.600,1.031,-0.599,-65.369,148.437,4.517
-0.634,1.003,-0.669,-67.871,147.400,1.221
-0.637,1.020,-0.696,-65.613,143.677,-1.160
-0.651,1.013,-0.716,-67.749,138.550,-3.235
-0.666,1.001,-0.753,-72.693,132.568,-4.822
-0.681,0.992,-0.805,-79.407,125.488,-5.249
-0.700,0.982,-0.843,-84.595,117.126,-6.104
-0.717,0.970,-0.857,-88.013,107.910,-8.240
-0.736,0.964,-0.863,-90.210,99.670,-11.169
-0.753,0.965,-0.881,-92.407,93.933,-14.832
-0.771,0.958,-0.920,-95.154,90.088,-19.592
-0.801,0.928,-0.990,-97.961,86.975,-25.330
-0.806,0.875,-1.076,-99.365,82.275,-31.372
-0.793,0.804,-1.151,-97.900,73.914,-36.743
-0.781,0.740,-1.189,-94.788,62.500,-39.246
-0.783,0.699,-1.181,-89.478,49.744,-38.879
-0.797,0.678,-1.155,-85.022,38.513,-36.377
-0.823,0.662,-1.145,-81.909,29.846,-33.325
-0.859,0.659,-1.136,-78.857,23.071,-31.006
-0.896,0.664,-1.117,-73.730,17.395,-29.724
-0.930,0.675,-1.095,-67.200,13.184,-30.151
-0.960,0.687,-1.078,-60.547,10.742,-32.532
-0.981,0.683,-1.078,-54.321,8.850,-36.133
-0.985,0.656,-1.111,-50.293,6.775,-40.283
-0.970,0.619,-1.180,-46.936,3.601,-43.274
-0.945,0.586,-1.222,-42.114,-2.625,-44.861
-0.937,0.577,-1.209,-35.950,-11.047,-45.288
-0.940,0.570,-1.169,-31.555,-19.409,-44.922
-0.929,0.580,-1.160,-31.006,-24.597,-43.884
-0.931,0.599,-1.189,-30.640,-26.123,-43.640
-0.934,0.595,-1.257,-29.053,-25.635,-45.532
-0.920,0.602,-1.333,-23.071,-24.597,-49.561
-0.906,0.587,-1.394,-10.437,-24.414,-56.580
-0.884,0.523,-1.419,6.592,-26.245,-65.857
-0.836,0.439,-1.414,24.292,-30.090,-73.059
-0.776,0.370,-1.395,37.964,-35.767,-75.623
-0.720,0.280,-1.373,45.532,-44.006,-73.059
-0.667,0.222,-1.347,45.227,-54.504,-65.918
-0.636,0.242,-1.276,40.344,-66.833,-56.152
-0.637,0.288,-1.165,34.851,-77.698,-47.974
-0.633,0.326,-1.091,29.907,-82.886,-44.128
-0.628,0.327,-1.030,28.625,-81.787,-43.701
-0.620,0.299,-0.993,33.691,-75.317,-45.349
-0.600,0.288,-1.021,39.856,-66.711,-47.241
-0.578,0.237,-1.070,44.617,-61.218,-47.302
-0.551,0.217,-1.106,47.363,-61.829,-43.457
-0.539,0.229,-1.149,46.875,-68.298,-37.048
-0.518,0.243,-1.129,43.884,-79.041,-30.090
-0.515,0.284,-0.999,41.748,-91.492,-24.597
-0.513,0.370,-0.887,35.828,-100.342,-21.667
-0.499,0.453,-0.844,24.719,-104.553,-21.667
-0.476,0.502,-0.849,15.869,-105.896,-24.963
-0.462,0.468,-0.860,14.709,-105.652,-31.189
-0.425,0.384,-0.859,20.874,-104.736,-36.621
-0.375,0.331,-0.833,30.884,-103.638,-37.903
-0.337,0.341,-0.797,39.917,-102.600,-34.973
-0.317,0.357,-0.754,44.067,-102.661,-30.334
-0.304,0.380,-0.731,43.152,-103.760,-25.574
-0.295,0.423,-0.731,40.405,-105.347,-21.667
-0.284,0.450,-0.715,38.635,-107.544,-19.897
-0.261,0.461,-0.667,38.452,-109.802,-20.447
-0.238,0.456,-0.635,37.354,-110.657,-21.912
-0.221,0.433,-0.651,33.569,-109.924,-21.851
-0.207,0.410,-0.663,30.701,-109.619,-20.081
-0.203,0.413,-0.661,32.532,-109.436,-16.541
-0.207,0.427,-0.639,38.696,-108.032,-12.207
-0.204,0.452,-0.616,45.715,-105.774,-8.667
-0.208,0.504,-0.599,51.514,-103.333,-5.981
-0.211,0.543,-0.561,54.321,-102.112,-4.822
-0.212,0.553,-0.499,54.688,-101.868,-5.859
-0.207,0.545,-0.473,51.147,-101.807,-7.874
-0.173,0.521,-0.486,42.480,-102.539,-10.071
-0.135,0.473,-0.489,34.180,-105.164,-10.437
-0.104,0.432,-0.474,29.846,-108.398,-7.874
-0.089,0.426,-0.461,28.687,-109.619,-3.174
-0.082,0.437,-0.433,30.212,-108.459,2.625
-0.079,0.463,-0.391,35.156,-105.103,6.958
-0.083,0.481,-0.378,39.673,-100.342,9.277
-0.082,0.486,-0.356,43.274,-95.581,10.681
-0.079,0.484,-0.301,46.265,-91.248,10.986
-0.076,0.488,-0.254,46.021,-87.280,11.108
-0.068,0.497,-0.241,39.551,-83.496,11.719
-0.062,0.495,-0.258,32.104,-80.139,13.550
-0.058,0.480,-0.278,28.564,-77.148,16.296

0.297,0.778,-0.659,12.573,-0.305,-38.086
0.336,0.650,-0.537,-4.639,-7.446,-25.330
0.314,0.802,-0.625,-33.875,-18.250,-7.996
0.205,0.900,-0.745,-56.885,-26.367,2.625
0.169,0.905,-0.875,-60.608,-32.654,-0.671
0.184,0.812,-0.891,-43.945,-37.354,-8.423
0.229,0.725,-0.859,-22.766,-39.673,-13.062
0.267,0.648,-0.897,-15.991,-43.213,-9.644
0.258,0.587,-0.871,-13.977,-49.072,-2.380
0.233,0.647,-0.788,-7.812,-54.016,5.188
0.208,0.720,-0.731,-6.104,-54.749,9.705
0.208,0.740,-0.709,-6.226,-50.842,8.850
0.229,0.699,-0.679,-4.456,-44.983,4.761
0.257,0.653,-0.658,-4.333,-39.795,1.343
0.273,0.611,-0.644,-8.179,-36.987,0.488
0.264,0.586,-0.614,-14.465,-37.354,0.854
0.224,0.548,-0.605,-21.118,-37.781,1.282
0.203,0.505,-0.648,-22.766,-35.217,2.686
0.192,0.468,-0.703,-16.113,-30.701,4.150
0.180,0.459,-0.680,-4.578,-26.978,5.493
0.174,0.502,-0.608,1.770,-25.146,7.385
0.129,0.531,-0.642,-1.770,-23.437,9.155
0.148,0.495,-0.603,-16.663,-22.644,11.047
0.143,0.458,-0.656,-28.564,-26.672,13.367
0.141,0.422,-0.696,-29.968,-31.006,16.235
0.130,0.414,-0.671,-22.644,-34.790,21.301
0.112,0.464,-0.605,-12.512,-36.987,27.649
0.095,0.535,-0.528,-6.531,-37.842,32.654
0.089,0.583,-0.450,-6.348,-38.086,35.034
0.098,0.588,-0.397,-11.414,-37.048,34.912
0.111,0.570,-0.365,-18.311,-34.058,34.241
0.114,0.544,-0.324,-24.048,-29.358,34.302
0.113,0.514,-0.301,-27.893,-22.949,36.377
0.100,0.494,-0.292,-28.381,-15.747,39.734
0.101,0.417,-0.334,-28.503,-9.583,45.715
0.102,0.390,-0.366,-28.198,-6.592,55.664
0.074,0.453,-0.340,-25.879,-8.301,68.298
0.011,0.525,-0.285,-23.865,-12.634,78.308
-0.048,0.614,-0.226,-26.428,-17.395,83.557
-0.086,0.691,-0.176,-34.546,-20.325,83.923
-0.099,0.712,-0.135,-44.617,-20.752,80.811
-0.113,0.716,-0.126,-54.382,-18.005,76.965
-0.121,0.719,-0.135,-62.683,-13.306,73.547
-0.124,0.707,-0.120,-68.970,-7.507,70.801
-0.123,0.702,-0.097,-72.754,0.122,68.298
-0.134,0.713,-0.104,-75.867,10.620,66.772
-0.154,0.703,-0.140,-77.637,22.766,66.162
-0.164,0.680,-0.192,-75.623,34.607,65.552
-0.176,0.658,-0.229,-68.420,45.471,65.918
-0.187,0.658,-0.243,-58.228,54.138,67.383
-0.196,0.693,-0.266,-51.208,59.875,69.214
-0.214,0.712,-0.276,-49.866,62.134,70.557
-0.230,0.707,-0.265,-51.697,61.340,70.801
-0.231,0.698,-0.240,-54.871,60.791,71.655
-0.240,0.689,-0.229,-57.251,63.049,73.303
-0.263,0.706,-0.234,-58.655,67.505,75.867
-0.287,0.733,-0.266,-59.326,72.937,78.247
-0.317,0.742,-0.309,-59.387,78.186,79.651
-0.341,0.741,-0.354,-57.312,82.031,79.773
-0.356,0.741,-0.389,-54.260,84.229,79.346
-0.359,0.768,-0.357,-51.575,85.266,78.674
-0.391,0.729,-0.409,-57.312,88.501,78.552
-0.366,0.776,-0.469,-54.504,90.332,78.003
-0.386,0.785,-0.412,-47.241,86.670,78.125
-0.426,0.769,-0.324,-46.997,84.595,76.843
-0.453,0.801,-0.278,-52.063,85.754,75.989
-0.486,0.849,-0.255,-59.387,88.135,74.951
-0.524,0.861,-0.225,-68.420,91.125,72.205
-0.555,0.885,-0.204,-74.219,96.191,68.604
-0.587,0.907,-0.208,-76.172,104.004,63.660
-0.607,0.920,-0.231,-77.271,113.098,56.274
-0.617,0.925,-0.296,-81.543,121.155,47.852
-0.617,0.922,-0.356,-91.980,128.235,39.551
-0.678,0.803,-0.507,-108.398,136.963,31.311
-0.675,0.791,-0.676,-106.201,142.639,27.222
-0.697,0.799,-0.727,-91.797,142.395,26.550
-0.752,0.777,-0.710,-80.872,140.564,24.902
-0.790,0.779,-0.658,-73.059,137.024,24.231
-0.825,0.809,-0.635,-74.646,132.080,24.475
-0.875,0.838,-0.618,-83.130,125.793,25.269
-0.936,0.880,-0.598,-91.064,119.873,24.719
-0.988,0.917,-0.610,-99.243,117.310,20.325
-1.024,0.932,-0.675,-107.056,117.859,11.963
-1.061,0.926,-0.783,-114.258,119.324,1.770
-1.093,0.894,-0.899,-118.774,119.141,-8.667
-1.115,0.880,-1.011,-118.225,116.760,-19.104
-1.104,0.850,-1.100,-115.845,112.244,-29.785
-1.107,0.786,-1.149,-112.671,104.370,-41.016
-1.071,0.745,-1.149,-110.779,93.201,-51.392
-1.034,0.686,-1.151,-115.356,81.665,-58.411
-1.011,0.631,-1.188,-121.399,71.045,-61.646
-1.000,0.602,-1.238,-123.413,61.035,-61.829
-1.000,0.572,-1.274,-120.056,50.964,-61.768
-0.996,0.557,-1.285,-113.220,41.016,-62.561
-0.995,0.567,-1.250,-106.445,31.189,-63.904
-1.018,0.602,-1.220,-104.736,23.132,-65.857
-1.042,0.657,-1.260,-111.267,16.541,-70.068
-1.067,0.678,-1.333,-121.948,8.972,-78.125
-1.093,0.666,-1.375,-127.319,-0.916,-91.187
-1.103,0.609,-1.365,-127.197,-11.047,-107.910
-1.088,0.510,-1.378,-125.427,-19.897,-125.000
-1.031,0.384,-1.419,-123.718,-27.832,-137.878
-0.968,0.253,-1.457,-121.582,-36.011,-144.653
-0.917,0.165,-1.464,-118.164,-45.471,-144.409
-0.875,0.136,-1.482,-117.493,-55.054,-140.320
-0.828,0.129,-1.532,-119.751,-63.538,-135.681
-0.780,0.080,-1.588,-119.690,-71.655,-133.057
-0.727,0.005,-1.599,-110.718,-79.163,-131.897
-0.666,-0.076,-1.585,-96.802,-85.938,-130.127
-0.613,-0.169,-1.566,-82.764,-91.003,-126.221
-0.568,-0.243,-1.556,-67.139,-95.154,-119.812
-0.510,-0.259,-1.484,-52.490,-100.220,-110.107
-0.503,-0.329,-1.437,-55.542,-103.271,-97.656
-0.483,-0.308,-1.421,-62.683,-105.835,-85.266
-0.460,-0.279,-1.411,-69.336,-111.755,-76.965
-0.455,-0.274,-1.350,-73.303,-120.300,-73.425
-0.454,-0.258,-1.289,-73.669,-129.333,-72.021
-0.416,-0.256,-1.191,-76.416,-137.695,-71.106
-0.383,-0.292,-1.100,-81.421,-144.043,-68.909
-0.348,-0.337,-1.047,-88.745,-146.423,-63.721
-0.310,-0.365,-1.037,-95.093,-145.142,-54.688
-0.277,-0.357,-1.037,-98.633,-142.090,-43.335
-0.245,-0.383,-1.043,-99.365,-138.611,-31.982
-0.223,-0.369,-1.054,-96.313,-135.925,-22.156
-0.223,-0.321,-1.047,-91.675,-135.010,-14.587
-0.217,-0.297,-1.015,-88.989,-135.010,-10.254
-0.208,-0.271,-1.024,-90.942,-135.681,-9.033
-0.188,-0.271,-1.062,-98.267,-137.939,-10.132
-0.166,-0.307,-1.086,-105.774,-142.334,-12.817
-0.140,-0.361,-1.091,-108.704,-147.644,-15.076
-0.084,-0.412,-1.086,-109.619,-151.917,-15.198
-0.034,-0.441,-1.077,-110.046,-154.663,-12.695
-0.013,-0.435,-1.088,-108.337,-156.311,-8.301
0.002,-0.430,-1.091,-105.713,-157.959,-3.601
0.021,-0.434,-1.065,-101.746,-159.607,2.991
0.036,-0.430,-1.046,-96.252,-160.400,11.230
0.039,-0.406,-1.041,-91.003,-159.607,20.813
0.050,-0.391,-1.011,-83.984,-157.104,30.884
0.055,-0.402,-0.947,-72.632,-151.978,40.344
0.053,-0.364,-0.917,-59.570,-143.005,48.645
0.062,-0.320,-0.896,-48.462,-131.470,54.932
0.066,-0.322,-0.870,-40.039,-119.568,57.678
0.073,-0.327,-0.853,-33.447,-107.544,58.167
0.090,-0.316,-0.849,-28.198,-96.130,58.350
0.105,-0.293,-0.850,-23.376,-85.571,57.678
0.119,-0.292,-0.843,-19.348,-76.904,56.519
0.129,-0.308,-0.824,-14.648,-69.702,56.274
0.151,-0.318,-0.796,-9.338,-63.477,57.312
0.176,-0.326,-0.776,-3.723,-57.068,59.692

0.525,-0.403,-1.205,-36.011,2.686,0.549
0.574,-0.416,-1.056,-18.616,5.005,3.967
0.551,-0.389,-1.038,-11.963,5.188,5.371
0.545,-0.459,-1.030,-15.686,2.197,4.578
0.552,-0.530,-1.038,-21.790,-4.395,4.211
0.534,-0.559,-0.981,-22.644,-13.733,5.188
0.521,-0.503,-0.883,-24.292,-23.987,8.667
0.479,-0.480,-0.761,-34.912,-31.616,11.536
0.471,-0.470,-0.715,-49.744,-35.278,9.033
0.494,-0.515,-0.711,-64.331,-38.025,4.517
0.519,-0.590,-0.659,-74.768,-41.077,1.465
0.516,-0.596,-0.583,-78.491,-40.955,3.296
0.464,-0.548,-0.485,-79.529,-37.048,6.409
0.408,-0.483,-0.388,-79.468,-29.602,6.775
0.379,-0.444,-0.344,-77.454,-18.860,1.221
0.350,-0.453,-0.315,-70.923,-6.714,-7.507
0.354,-0.473,-0.330,-58.960,6.165,-16.113
0.327,-0.488,-0.327,-42.419,18.799,-21.240
0.325,-0.473,-0.239,-26.245,28.992,-22.217
0.214,-0.410,-0.321,-21.362,36.011,-20.691
0.150,-0.358,-0.296,-23.071,40.894,-19.226
0.099,-0.259,-0.240,-36.255,39.917,-18.555
0.030,-0.209,-0.210,-59.509,40.649,-20.813
-0.021,-0.158,-0.209,-88.989,43.762,-24.780
-0.051,-0.117,-0.232,-118.652,48.645,-31.677
-0.063,-0.114,-0.274,-143.555,54.321,-41.443
-0.069,-0.141,-0.324,-158.813,60.364,-52.979
-0.066,-0.159,-0.372,-164.673,66.895,-64.148
-0.070,-0.197,-0.407,-164.185,73.730,-73.547
-0.070,-0.225,-0.479,-160.095,80.383,-80.383
-0.066,-0.250,-0.545,-153.442,85.449,-85.266
-0.075,-0.267,-0.583,-142.761,88.501,-89.050
-0.092,-0.284,-0.584,-129.822,89.905,-92.163
-0.109,-0.290,-0.589,-118.408,90.698,-94.482
-0.122,-0.281,-0.626,-110.718,90.698,-96.619
-0.136,-0.288,-0.648,-104.919,89.966,-99.365
-0.155,-0.324,-0.662,-98.389,88.928,-102.966
-0.163,-0.346,-0.670,-89.844,88.623,-106.995
-0.178,-0.339,-0.673,-79.712,89.783,-110.535
-0.199,-0.284,-0.673,-71.167,92.529,-112.854
-0.224,-0.238,-0.676,-66.345,95.703,-115.234
-0.244,-0.239,-0.680,-64.331,97.351,-119.690
-0.260,-0.272,-0.673,-62.073,96.802,-125.488
-0.254,-0.274,-0.677,-57.129,95.703,-131.042
-0.260,-0.286,-0.689,-53.589,94.788,-136.780
-0.267,-0.313,-0.721,-53.894,92.957,-142.090
-0.268,-0.378,-0.753,-56.519,89.478,-146.362
-0.257,-0.451,-0.784,-56.946,86.121,-148.743
-0.264,-0.497,-0.805,-53.101,83.374,-148.132
-0.288,-0.481,-0.815,-45.837,81.482,-144.592
-0.316,-0.436,-0.817,-38.879,79.224,-139.893
-0.345,-0.417,-0.833,-34.363,75.745,-135.986
-0.365,-0.444,-0.835,-32.227,70.190,-133.606
-0.380,-0.462,-0.842,-29.297,63.354,-132.385
-0.382,-0.469,-0.865,-26.062,57.068,-132.446
-0.401,-0.483,-0.837,-22.217,51.392,-133.972
-0.406,-0.505,-0.908,-21.545,48.584,-136.414
-0.428,-0.559,-0.960,-12.695,45.715,-139.526
-0.462,-0.602,-0.934,0.854,41.138,-141.357
-0.480,-0.618,-0.948,11.658,39.551,-139.771
-0.515,-0.597,-0.975,26.978,39.612,-134.644
-0.562,-0.561,-1.006,42.664,38.147,-126.892
-0.604,-0.508,-1.057,54.443,34.180,-118.347
-0.618,-0.494,-1.106,62.866,28.137,-111.694
-0.618,-0.507,-1.146,69.946,21.057,-108.765
-0.643,-0.532,-1.082,71.472,14.832,-108.521
-0.658,-0.563,-1.104,60.791,14.648,-109.192
-0.705,-0.625,-1.133,56.396,16.357,-112.366
-0.710,-0.651,-1.188,60.303,17.212,-114.014
-0.705,-0.658,-1.252,67.200,15.747,-111.511
-0.715,-0.656,-1.279,74.463,10.803,-106.750
-0.704,-0.622,-1.312,78.613,5.371,-100.830
-0.713,-0.644,-1.354,80.200,0.244,-95.520
-0.738,-0.675,-1.381,84.290,-4.761,-90.332
-0.740,-0.672,-1.418,92.529,-10.132,-84.900
-0.743,-0.673,-1.419,101.074,-16.174,-80.383
-0.762,-0.677,-1.391,108.032,-22.217,-76.233
-0.775,-0.672,-1.361,112.976,-27.161,-71.899
-0.783,-0.680,-1.327,113.586,-30.945,-67.017
-0.812,-0.686,-1.313,111.328,-33.630,-62.500
-0.836,-0.646,-1.328,107.971,-35.278,-58.411
-0.849,-0.627,-1.377,103.699,-36.438,-55.359
-0.867,-0.637,-1.436,98.816,-39.001,-52.856
-0.871,-0.621,-1.473,95.520,-44.006,-49.683
-0.885,-0.601,-1.492,96.863,-50.720,-46.265
-0.904,-0.603,-1.493,99.182,-58.411,-43.335
-0.924,-0.616,-1.474,101.074,-65.552,-40.283
-0.923,-0.610,-1.455,103.455,-71.045,-38.269
-0.896,-0.675,-1.415,104.370,-74.951,-38.513
-0.843,-0.728,-1.423,98.877,-75.317,-38.330
-0.809,-0.747,-1.489,90.210,-73.242,-34.790
-0.819,-0.735,-1.560,87.280,-73.730,-28.137
-0.838,-0.686,-1.595,89.722,-78.552,-20.691
-0.852,-0.623,-1.577,94.421,-84.656,-15.198
-0.870,-0.571,-1.541,100.830,-88.196,-15.015
-0.877,-0.540,-1.497,106.384,-88.379,-20.630
-0.856,-0.564,-1.425,111.633,-86.609,-30.640
-0.803,-0.615,-1.382,117.432,-82.947,-41.748
-0.737,-0.669,-1.372,118.347,-79.895,-50.476
-0.675,-0.725,-1.367,115.295,-79.651,-53.101
-0.626,-0.735,-1.355,113.586,-82.703,-48.950
-0.599,-0.695,-1.333,112.244,-87.463,-40.710
-0.607,-0.644,-1.303,111.328,-91.553,-31.494
-0.615,-0.590,-1.289,110.779,-93.750,-24.231
-0.623,-0.550,-1.265,110.718,-93.811,-20.508
-0.632,-0.515,-1.234,114.258,-91.980,-19.714
-0.631,-0.492,-1.191,117.737,-88.989,-20.996
-0.633,-0.472,-1.177,117.371,-85.449,-23.865
-0.612,-0.459,-1.213,110.840,-83.069,-27.405
-0.589,-0.423,-1.239,102.356,-84.778,-30.579
-0.562,-0.389,-1.227,98.022,-90.332,-32.410
-0.543,-0.351,-1.186,93.750,-97.412,-32.166
-0.525,-0.336,-1.102,88.623,-103.271,-30.701
-0.495,-0.320,-1.063,82.581,-104.797,-29.114
-0.469,-0.298,-1.055,73.425,-102.600,-27.344
-0.446,-0.279,-1.060,67.322,-99.548,-26.245
-0.416,-0.246,-1.065,65.186,-98.511,-25.269
-0.369,-0.232,-1.021,62.683,-99.854,-22.888
-0.323,-0.203,-0.998,58.350,-102.722,-18.188
-0.274,-0.178,-0.987,49.011,-106.079,-10.864
-0.239,-0.156,-0.949,38.757,-110.168,-2.380
-0.217,-0.123,-0.882,30.212,-113.220,5.798
-0.214,-0.060,-0.855,23.437,-113.098,12.390
-0.220,0.009,-0.848,16.296,-111.450,16.907
-0.230,0.053,-0.850,9.399,-110.291,18.188
-0.216,0.078,-0.867,3.540,-109.375,16.846
-0.172,0.008,-0.901,-1.526,-108.276,15.381
-0.152,-0.060,-0.953,-2.869,-107.666,18.188
-0.074,-0.008,-0.929,1.892,-108.154,24.780
-0.074,-0.023,-0.874,5.737,-106.873,33.997
-0.084,0.032,-0.818,9.949,-103.577,42.786
-0.094,0.130,-0.801,10.437,-98.450,49.011
-0.113,0.206,-0.818,7.690,-94.543,50.598
-0.104,0.240,-0.820,1.709,-93.567,48.157
-0.092,0.203,-0.820,-6.165,-93.323,43.457
-0.055,0.166,-0.846,-13.611,-92.957,39.368
-0.009,0.135,-0.848,-21.423,-94.299,37.903
0.011,0.109,-0.827,-27.100,-96.008,39.795
0.027,0.115,-0.802,-31.006,-96.436,42.908
0.038,0.133,-0.770,-34.241,-94.910,45.105
0.048,0.147,-0.736,-37.048,-91.858,44.983
0.074,0.141,-0.737,-40.771,-87.524,43.823
0.103,0.109,-0.738,-44.189,-82.886,42.969
0.116,0.073,-0.704,-43.335,-77.759,43.884
0.113,0.073,-0.693,-39.551,-70.862,45.837
0.107,0.082,-0.732,-36.377,-62.683,47.668
0.105,0.063,-0.788,-32.898,-57.129,48.157
0.130,0.046,-0.782,-26.855,-55.054,48.462
0.122,-0.000,-0.750,-21.912,-52.917,52.612

0.506,0.138,-1.091,-32.227,-28.992,-2.197
0.498,0.159,-0.952,-31.372,-28.992,6.653
0.486,0.207,-0.993,-35.645,-26.550,5.981
0.496,0.061,-1.084,-39.612,-23.682,0.183
0.528,-0.092,-1.107,-38.635,-28.259,-3.052
0.538,-0.152,-1.062,-30.945,-33.691,-1.221
0.515,-0.190,-1.003,-27.588,-35.339,5.188
0.486,-0.183,-0.988,-26.245,-32.654,11.841
0.453,-0.203,-0.979,-22.400,-27.405,15.320
0.428,-0.236,-0.945,-16.785,-22.156,15.381
0.421,-0.243,-0.919,-13.855,-17.639,16.724
0.395,-0.234,-0.862,-14.038,-13.489,18.677
0.368,-0.219,-0.798,-14.893,-8.850,18.860
0.348,-0.224,-0.730,-15.625,-3.174,16.602
0.329,-0.260,-0.675,-14.709,4.517,13.916
0.298,-0.296,-0.623,-10.559,13.123,11.841
0.268,-0.300,-0.599,-3.235,20.691,12.085
0.214,-0.289,-0.587,3.052,26.367,13.672
0.198,-0.229,-0.582,7.019,29.785,16.174
0.262,-0.185,-0.453,11.719,31.250,19.592
0.094,-0.111,-0.470,13.367,32.898,23.743
0.047,-0.063,-0.398,6.104,36.804,27.649
0.003,0.041,-0.350,-10.315,43.640,29.175
-0.042,0.121,-0.365,-33.020,53.406,26.123
-0.052,0.142,-0.446,-55.481,63.538,18.494
-0.052,0.151,-0.523,-71.411,70.618,8.484
-0.056,0.137,-0.567,-79.590,74.707,-0.732
-0.023,0.069,-0.642,-81.848,76.538,-6.226
0.028,0.002,-0.693,-78.735,75.806,-7.019
0.043,-0.010,-0.675,-66.284,74.524,-1.587
0.022,-0.003,-0.598,-48.645,75.500,10.742
-0.005,0.055,-0.555,-34.241,79.468,26.123
-0.024,0.149,-0.523,-27.466,85.083,38.696
-0.063,0.234,-0.523,-24.597,91.370,45.776
-0.099,0.294,-0.547,-25.330,97.412,47.913
-0.123,0.308,-0.532,-28.198,100.952,46.875
-0.140,0.341,-0.495,-30.396,103.394,44.373
-0.158,0.381,-0.461,-33.203,106.628,40.527
-0.180,0.413,-0.462,-39.429,110.779,35.706
-0.197,0.429,-0.482,-48.706,115.295,30.518
-0.207,0.434,-0.514,-57.556,119.751,24.353
-0.229,0.432,-0.569,-64.392,124.207,16.785
-0.249,0.401,-0.612,-70.068,127.686,7.874
-0.260,0.349,-0.656,-73.547,130.188,-1.770
-0.256,0.313,-0.695,-73.608,132.141,-10.010
-0.256,0.284,-0.695,-71.228,134.338,-16.418
-0.269,0.257,-0.696,-67.688,139.282,-20.874
-0.278,0.271,-0.715,-59.448,146.057,-23.376
-0.285,0.306,-0.736,-49.133,152.100,-24.963
-0.300,0.315,-0.739,-40.466,155.579,-27.039
-0.332,0.298,-0.723,-33.997,156.677,-28.015
-0.371,0.273,-0.688,-29.358,156.494,-27.832
-0.412,0.295,-0.692,-29.297,157.043,-26.123
-0.462,0.316,-0.753,-37.537,158.203,-25.391
-0.531,0.292,-0.762,-52.734,159.424,-27.039
-0.555,0.305,-0.998,-68.176,161.682,-30.762
-0.569,0.272,-1.100,-59.937,154.602,-37.964
-0.565,0.207,-1.060,-46.814,144.165,-43.640
-0.557,0.120,-1.001,-34.180,138.123,-45.898
-0.557,0.124,-0.983,-19.531,138.733,-44.250
-0.569,0.178,-0.954,-4.089,142.151,-40.344
-0.616,0.224,-0.937,8.240,145.325,-35.950
-0.674,0.260,-0.908,17.151,146.423,-32.288
-0.716,0.317,-0.885,21.362,145.935,-30.334
-0.751,0.383,-0.916,18.250,144.958,-31.433
-0.803,0.381,-0.906,3.479,143.250,-35.583
-0.810,0.353,-1.071,-16.907,141.541,-41.138
-0.814,0.305,-1.123,-19.958,133.606,-48.767
-0.836,0.209,-1.129,-17.090,124.634,-56.396
-0.831,0.141,-1.139,-10.132,118.164,-60.120
-0.815,0.141,-1.164,-1.221,113.953,-58.472
-0.830,0.123,-1.194,6.531,109.192,-53.223
-0.856,0.129,-1.210,14.160,103.271,-45.105
-0.904,0.193,-1.239,21.179,95.703,-36.438
-0.981,0.259,-1.266,25.208,87.585,-30.090
-1.047,0.322,-1.249,28.992,79.529,-27.771
-1.095,0.374,-1.241,33.081,73.608,-30.273
-1.109,0.392,-1.239,34.119,69.275,-36.987
-1.127,0.362,-1.270,31.677,66.162,-44.250
-1.113,0.344,-1.307,32.043,62.439,-50.720
-1.104,0.308,-1.351,32.532,55.847,-56.519
-1.081,0.296,-1.342,32.776,46.753,-61.218
-1.059,0.244,-1.369,24.597,38.452,-63.721
-1.041,0.163,-1.426,14.404,30.334,-64.575
-1.048,0.091,-1.471,12.756,19.958,-62.317
-1.027,0.094,-1.484,18.860,6.470,-56.580
-1.017,0.118,-1.461,23.376,-7.141,-50.354
-1.037,0.135,-1.419,22.705,-18.311,-44.739
-1.060,0.159,-1.397,18.494,-25.818,-40.649
-1.080,0.167,-1.410,14.160,-30.212,-39.856
-1.087,0.163,-1.438,14.343,-32.715,-42.175
-1.078,0.158,-1.463,20.325,-34.973,-45.715
-1.069,0.149,-1.493,27.710,-37.415,-48.401
-1.063,0.118,-1.533,34.973,-40.894,-49.744
-1.081,0.087,-1.562,42.969,-46.509,-49.316
-1.109,0.084,-1.555,51.331,-52.979,-47.729
-1.118,0.122,-1.515,59.448,-58.655,-46.692
-1.131,0.159,-1.477,66.040,-61.279,-48.584
-1.134,0.171,-1.459,69.885,-60.608,-54.321
-1.111,0.168,-1.446,72.815,-58.350,-63.293
-1.077,0.154,-1.442,77.209,-55.237,-74.707
-1.026,0.112,-1.456,81.604,-53.284,-87.097
-0.968,0.061,-1.461,84.900,-54.565,-97.412
-0.909,0.007,-1.428,87.463,-59.509,-104.492
-0.850,-0.025,-1.365,87.769,-66.650,-107.544
-0.795,-0.043,-1.302,82.825,-73.792,-106.812
-0.750,-0.044,-1.262,73.425,-79.590,-103.455
-0.720,-0.040,-1.238,62.195,-84.595,-98.267
-0.711,-0.027,-1.252,52.246,-87.891,-91.919
-0.705,0.015,-1.270,46.570,-90.454,-85.754
-0.693,0.073,-1.274,44.678,-92.102,-81.543
-0.671,0.125,-1.267,48.218,-92.590,-82.092
-0.637,0.140,-1.266,54.443,-92.896,-86.670
-0.583,0.115,-1.266,58.838,-94.910,-92.285
-0.528,0.092,-1.238,60.974,-100.342,-96.252
-0.491,0.076,-1.190,61.523,-108.215,-96.619
-0.465,0.047,-1.147,58.777,-116.577,-93.811
-0.437,0.032,-1.115,53.284,-124.451,-87.463
-0.408,0.040,-1.073,46.997,-131.287,-78.369
-0.389,0.086,-1.011,41.748,-136.536,-68.237
-0.372,0.127,-0.957,38.025,-138.794,-59.753
-0.342,0.158,-0.929,34.729,-137.146,-53.650
-0.311,0.183,-0.929,32.593,-132.812,-49.683
-0.308,0.174,-0.926,33.081,-128.418,-47.485
-0.299,0.162,-0.893,36.377,-125.427,-44.922
-0.280,0.166,-0.874,39.368,-122.925,-41.260
-0.269,0.165,-0.874,39.490,-121.216,-36.194
-0.271,0.165,-0.881,38.086,-120.728,-29.236
-0.276,0.193,-0.869,37.292,-121.704,-20.142
-0.291,0.232,-0.837,36.987,-123.413,-12.024
-0.304,0.272,-0.802,36.072,-124.573,-6.592
-0.309,0.300,-0.757,33.691,-124.817,-4.272
-0.305,0.328,-0.692,31.433,-124.390,-3.662
-0.299,0.331,-0.629,29.114,-123.291,-4.272
-0.279,0.317,-0.613,24.231,-120.544,-4.395
-0.252,0.333,-0.608,19.043,-117.493,-2.319
-0.230,0.379,-0.585,17.517,-114.990,1.526
-0.231,0.411,-0.570,17.883,-111.633,3.784
-0.222,0.426,-0.572,18.127,-107.239,3.967
-0.200,0.435,-0.585,19.287,-102.600,2.563
-0.178,0.421,-0.580,21.301,-98.572,0.305
-0.148,0.403,-0.546,22.766,-95.520,-1.282
-0.115,0.382,-0.537,19.836,-93.140,-1.770
-0.087,0.352,-0.522,11.292,-91.614,-0.427
-0.070,0.352,-0.516,1.526,-91.125,2.747
-0.065,0.371,-0.532,-8.118,-91.431,6.714
-0.064,0.372,-0.546,-14.587,-91.980,9.827
-0.057,0.365,-0.559,-15.198,-91.797,11.841
-0.047,0.345,-0.567,-9.766,-90.149,13.428

0.333,0.735,-0.819,-86.609,12.634,-27.283
0.400,0.500,-1.064,-77.942,-3.723,-22.583
0.344,0.486,-1.110,-66.406,-11.292,-15.442
0.312,0.510,-1.046,-52.795,-21.973,-11.780
0.300,0.507,-1.013,-50.659,-32.227,-11.414
0.306,0.440,-1.029,-57.800,-39.795,-12.268
0.324,0.364,-1.023,-66.101,-46.875,-12.329
0.338,0.318,-1.013,-71.838,-52.673,-10.742
0.354,0.274,-0.982,-73.914,-55.664,-9.033
0.372,0.213,-0.914,-68.909,-53.101,-8.057
0.390,0.188,-0.833,-58.777,-44.434,-6.775
0.379,0.203,-0.792,-49.500,-32.288,-5.005
0.321,0.216,-0.774,-43.030,-20.447,-3.662
0.262,0.225,-0.762,-36.133,-10.925,-5.188
0.248,0.140,-0.747,-28.137,-3.540,-10.254
0.265,0.067,-0.725,-20.508,2.686,-14.099
0.253,0.076,-0.698,-19.897,5.676,-10.864
0.197,0.158,-0.707,-35.034,3.967,-3.601
0.165,0.130,-0.709,-60.913,0.366,3.601
0.158,0.166,-0.694,-80.200,-5.005,8.545
0.127,0.206,-0.657,-92.773,-6.836,9.216
0.111,0.240,-0.600,-100.098,-6.104,7.568
0.107,0.261,-0.559,-111.084,-4.272,3.967
0.100,0.274,-0.536,-124.878,-2.991,-0.427
0.103,0.275,-0.504,-141.174,-3.601,-4.700
0.120,0.244,-0.496,-159.363,-5.676,-9.155
0.158,0.192,-0.500,-179.321,-8.423,-13.245
0.193,0.152,-0.490,-197.266,-11.963,-14.587
0.208,0.124,-0.481,-210.815,-14.465,-13.184
0.200,0.113,-0.494,-220.032,-14.709,-10.254
0.183,0.086,-0.511,-225.220,-11.963,-7.019
0.162,0.069,-0.545,-226.013,-6.104,-4.089
0.128,0.075,-0.562,-222.595,1.343,-1.099
0.087,0.114,-0.578,-216.980,9.094,0.549
0.056,0.143,-0.606,-212.280,15.869,-0.854
0.035,0.153,-0.639,-207.520,21.362,-3.784
0.025,0.167,-0.653,-198.853,27.588,-7.812
0.013,0.150,-0.609,-183.594,36.316,-13.000
0.000,0.142,-0.575,-165.344,48.462,-18.799
-0.012,0.138,-0.561,-151.855,63.232,-24.109
-0.034,0.089,-0.551,-144.531,78.125,-27.710
-0.055,0.089,-0.593,-137.024,92.224,-29.297
-0.084,0.114,-0.643,-128.601,104.004,-29.724
-0.119,0.132,-0.667,-117.065,111.633,-31.982
-0.142,0.144,-0.674,-106.628,115.662,-36.316
-0.156,0.146,-0.689,-98.694,118.042,-41.382
-0.171,0.131,-0.712,-92.285,120.544,-45.044
-0.187,0.110,-0.725,-85.327,123.291,-47.241
-0.203,0.096,-0.737,-77.271,126.343,-48.462
-0.214,0.076,-0.751,-69.946,129.089,-49.438
-0.209,0.056,-0.769,-64.819,131.042,-50.232
-0.209,0.058,-0.801,-62.134,131.653,-50.171
-0.232,0.070,-0.838,-60.059,130.371,-49.805
-0.282,0.099,-0.772,-60.486,127.869,-49.805
-0.330,0.100,-0.933,-71.960,129.211,-51.514
-0.366,0.107,-1.006,-65.674,126.465,-57.312
-0.406,0.098,-0.978,-57.312,121.094,-64.514
-0.438,0.047,-0.973,-51.941,119.446,-71.655
-0.447,0.032,-0.980,-39.368,121.216,-75.439
-0.453,0.051,-0.967,-20.203,124.146,-76.233
-0.465,0.055,-0.921,-3.540,127.563,-76.477
-0.497,0.060,-0.909,6.042,131.104,-76.843
-0.520,0.082,-0.944,7.202,133.179,-78.247
-0.552,0.077,-0.997,0.977,131.836,-81.360
-0.569,0.038,-1.027,-10.254,126.526,-86.365
-0.568,-0.012,-1.061,-20.386,120.422,-91.187
-0.577,-0.049,-1.013,-26.733,115.906,-94.482
-0.595,-0.105,-1.093,-36.011,117.432,-95.337
-0.620,-0.147,-1.201,-30.457,118.164,-95.032
-0.602,-0.110,-1.285,-17.212,114.502,-91.431
-0.615,-0.077,-1.348,-5.676,108.582,-87.524
-0.668,-0.068,-1.390,6.104,101.196,-86.304
-0.701,-0.081,-1.391,18.677,92.224,-87.646
-0.708,-0.140,-1.321,31.128,83.801,-89.539
-0.695,-0.138,-1.305,41.565,79.590,-89.294
-0.666,-0.101,-1.385,44.678,79.102,-86.548
-0.687,-0.105,-1.475,42.480,76.050,-83.496
-0.718,-0.100,-1.541,41.016,67.993,-79.712
-0.724,-0.067,-1.593,43.030,56.702,-75.989
-0.736,-0.037,-1.633,47.363,43.945,-74.951
-0.753,-0.024,-1.661,51.758,31.494,-76.111
-0.761,-0.037,-1.676,57.190,20.447,-78.430
-0.749,-0.104,-1.685,64.087,10.925,-80.566
-0.721,-0.162,-1.659,72.815,2.197,-80.383
-0.692,-0.186,-1.630,78.552,-3.662,-77.515
-0.680,-0.186,-1.616,80.505,-7.141,-72.937
-0.691,-0.190,-1.619,76.294,-10.437,-65.979
-0.714,-0.208,-1.672,70.129,-15.137,-57.556
-0.747,-0.182,-1.713,74.768,-23.315,-48.340
-0.787,-0.135,-1.680,87.769,-34.607,-39.612
-0.822,-0.079,-1.622,98.328,-43.640,-31.494
-0.852,-0.021,-1.590,103.088,-47.424,-25.085
-0.895,0.002,-1.598,103.821,-47.058,-22.217
-0.926,-0.006,-1.651,100.952,-45.532,-22.522
-0.938,-0.007,-1.705,97.046,-46.570,-25.574
-0.937,-0.000,-1.719,94.299,-50.781,-31.128
-0.914,-0.000,-1.732,91.675,-56.152,-38.757
-0.886,-0.037,-1.733,88.440,-62.683,-47.485
-0.852,-0.075,-1.716,85.876,-70.984,-54.932
-0.812,-0.119,-1.683,87.158,-79.102,-60.547
-0.783,-0.149,-1.601,92.957,-85.083,-63.171
-0.764,-0.164,-1.496,100.830,-87.219,-64.209
-0.744,-0.166,-1.404,105.225,-84.961,-65.369
-0.723,-0.160,-1.369,102.722,-79.346,-66.345
-0.700,-0.153,-1.396,94.788,-74.402,-68.237
-0.655,-0.161,-1.454,83.679,-72.693,-69.702
-0.608,-0.187,-1.521,74.280,-74.890,-69.336
-0.584,-0.201,-1.540,71.960,-80.933,-67.993
-0.572,-0.190,-1.504,75.500,-88.623,-66.711
-0.560,-0.176,-1.423,81.848,-95.276,-65.613
-0.537,-0.168,-1.305,87.402,-99.609,-65.430
-0.503,-0.160,-1.200,87.646,-101.257,-65.002
-0.461,-0.149,-1.147,79.590,-101.013,-63.416
-0.415,-0.142,-1.172,65.369,-101.074,-59.814
-0.364,-0.161,-1.244,49.744,-103.699,-54.626
-0.320,-0.186,-1.275,41.687,-110.352,-47.974
-0.288,-0.179,-1.233,42.786,-118.652,-39.612
-0.278,-0.149,-1.164,47.729,-125.183,-31.189
-0.259,-0.108,-1.115,49.622,-129.333,-23.682
-0.258,-0.038,-1.074,46.814,-132.263,-17.883
-0.257,0.004,-0.979,44.861,-133.728,-15.076
-0.241,-0.041,-0.853,43.884,-131.348,-15.381
-0.189,-0.023,-0.904,36.987,-125.122,-15.991
-0.152,-0.024,-0.969,23.865,-121.826,-16.663
-0.120,-0.047,-0.985,15.747,-122.803,-15.259
-0.098,-0.037,-0.981,16.235,-125.732,-10.925
-0.096,-0.032,-0.925,21.240,-128.784,-6.409
-0.090,-0.038,-0.846,25.696,-129.578,-2.991
-0.072,-0.049,-0.793,27.466,-126.953,1.038
-0.047,-0.044,-0.772,25.146,-121.887,6.836
-0.032,-0.019,-0.755,22.339,-115.784,14.282
-0.038,0.046,-0.758,20.813,-109.558,21.729
-0.055,0.114,-0.773,20.264,-104.614,27.222
-0.065,0.161,-0.787,18.616,-101.807,28.748
-0.067,0.172,-0.782,16.174,-101.501,27.649
-0.053,0.177,-0.751,13.000,-102.661,25.940
-0.033,0.185,-0.731,8.362,-103.821,25.269
-0.011,0.191,-0.738,1.465,-104.553,25.818
0.005,0.187,-0.737,-5.127,-105.591,27.222
0.019,0.197,-0.718,-9.094,-105.896,29.114
0.022,0.217,-0.679,-10.742,-104.614,30.090
0.027,0.236,-0.644,-12.329,-101.563,30.029
0.045,0.239,-0.628,-14.893,-97.229,28.748
0.071,0.204,-0.645,-18.005,-91.980,28.015
0.090,0.155,-0.660,-19.592,-87.891,29.541
0.092,0.127,-0.669,-13.794,-84.778,33.081
0.097,0.132,-0.608,-4.395,-82.214,37.842
0.091,0.155,-0.543,-1.892,-77.942,45.410
0.072,0.224,-0.528,-5.981,-74.036,52.917

0.299,0.834,-1.007,-22.827,-8.423,-1.587
0.411,0.755,-0.907,-33.630,-11.047,-4.150
0.401,0.677,-0.974,-34.424,-9.277,-9.460
0.415,0.566,-1.047,-30.151,-8.362,-13.428
0.424,0.505,-1.071,-25.269,-11.902,-12.268
0.419,0.478,-1.096,-21.606,-17.212,-8.972
0.412,0.455,-1.075,-20.020,-23.193,-5.981
0.395,0.430,-1.051,-19.348,-27.344,-4.395
0.391,0.407,-1.040,-21.545,-29.968,-2.625
0.363,0.355,-1.065,-25.085,-30.579,-0.305
0.372,0.345,-1.043,-24.658,-30.945,0.183
0.385,0.326,-0.998,-23.193,-31.738,-1.465
0.403,0.272,-0.959,-24.292,-33.081,-3.784
0.399,0.208,-0.940,-28.320,-34.790,-3.845
0.361,0.114,-0.902,-27.771,-36.377,-1.953
0.325,0.079,-0.835,-15.381,-33.936,1.343
0.296,0.036,-0.829,1.953,-26.550,5.066
0.291,0.019,-0.825,16.113,-18.738,9.277
0.237,0.069,-0.786,22.827,-12.390,14.221
0.242,0.078,-0.809,15.930,-9.460,20.630
0.224,0.149,-0.764,12.085,-12.390,26.855
0.178,0.232,-0.662,7.751,-16.602,28.503
0.150,0.273,-0.584,-0.977,-17.761,26.611
0.142,0.265,-0.571,-13.916,-15.625,20.996
0.149,0.248,-0.560,-23.499,-11.841,13.916
0.152,0.236,-0.554,-27.832,-6.897,7.568
0.164,0.194,-0.563,-31.372,-2.197,3.418
0.173,0.135,-0.542,-33.325,1.221,3.357
0.172,0.138,-0.497,-31.250,4.395,8.057
0.144,0.179,-0.460,-27.588,8.667,14.709
0.114,0.228,-0.427,-26.184,13.794,20.203
0.097,0.261,-0.402,-26.184,19.165,23.254
0.085,0.273,-0.373,-27.405,24.597,24.353
0.071,0.278,-0.372,-29.846,30.518,24.841
0.068,0.287,-0.372,-33.752,35.645,26.001
0.070,0.297,-0.360,-36.194,40.466,27.954
0.056,0.327,-0.333,-34.668,46.753,30.273
0.021,0.369,-0.308,-30.457,54.138,31.799
-0.015,0.398,-0.284,-28.992,61.279,31.006
-0.042,0.417,-0.256,-30.518,67.688,28.137
-0.059,0.437,-0.241,-34.973,73.975,24.109
-0.063,0.476,-0.251,-41.260,80.200,19.287
-0.067,0.512,-0.277,-48.767,85.632,13.611
-0.079,0.509,-0.282,-56.396,88.806,7.080
-0.089,0.482,-0.276,-64.331,90.454,0.854
-0.090,0.432,-0.260,-72.021,93.445,-2.686
-0.107,0.392,-0.263,-76.477,99.670,-3.113
-0.130,0.378,-0.281,-75.256,108.643,-1.587
-0.144,0.389,-0.319,-69.397,119.141,1.953
-0.169,0.418,-0.353,-60.913,130.249,5.920
-0.202,0.467,-0.362,-51.208,140.869,9.216
-0.241,0.519,-0.393,-44.495,150.818,10.925
-0.290,0.555,-0.452,-43.701,159.119,10.925
-0.328,0.589,-0.460,-46.570,164.673,9.155
-0.391,0.543,-0.520,-58.411,171.509,6.775
-0.401,0.560,-0.683,-58.228,178.467,3.235
-0.427,0.587,-0.706,-44.250,178.833,1.221
-0.469,0.587,-0.681,-37.842,179.138,-0.305
-0.508,0.577,-0.701,-36.377,182.251,-2.625
-0.530,0.629,-0.744,-32.959,185.486,-4.517
-0.558,0.686,-0.822,-33.142,187.012,-6.287
-0.592,0.685,-0.921,-40.649,185.486,-9.827
-0.613,0.663,-1.013,-48.828,181.152,-14.282
-0.628,0.649,-1.090,-51.392,175.232,-18.555
-0.651,0.632,-1.090,-48.950,170.044,-21.973
-0.681,0.605,-1.099,-47.791,169.312,-23.560
-0.699,0.623,-1.226,-39.673,170.776,-24.109
-0.729,0.678,-1.259,-20.447,167.053,-25.635
-0.778,0.705,-1.254,-9.277,162.659,-28.503
-0.801,0.700,-1.245,-4.639,158.813,-31.982
-0.806,0.678,-1.239,-4.700,154.114,-35.339
-0.805,0.662,-1.278,-9.338,147.949,-36.560
-0.795,0.653,-1.341,-17.456,138.611,-35.767
-0.796,0.658,-1.384,-25.391,125.732,-33.630
-0.814,0.680,-1.417,-31.494,111.572,-31.616
-0.837,0.697,-1.454,-36.682,98.450,-31.616
-0.851,0.702,-1.478,-39.490,87.097,-34.729
-0.863,0.691,-1.480,-36.743,77.393,-39.978
-0.867,0.667,-1.455,-29.358,70.068,-47.424
-0.868,0.625,-1.416,-20.508,64.941,-55.237
-0.869,0.582,-1.398,-13.916,61.890,-61.523
-0.856,0.539,-1.394,-10.864,59.448,-65.063
-0.843,0.500,-1.407,-10.681,56.763,-65.674
-0.836,0.479,-1.437,-13.000,52.429,-64.392
-0.849,0.473,-1.472,-15.869,45.349,-62.073
-0.868,0.469,-1.499,-18.555,35.767,-59.509
-0.888,0.474,-1.496,-20.691,24.719,-58.716
-0.899,0.485,-1.477,-20.203,14.221,-60.486
-0.906,0.473,-1.480,-17.944,6.226,-64.209
-0.904,0.422,-1.512,-12.512,-0.244,-69.092
-0.889,0.378,-1.469,-4.883,-7.690,-72.998
-0.880,0.329,-1.455,-5.371,-12.756,-75.867
-0.867,0.267,-1.470,-6.897,-16.418,-78.674
-0.839,0.204,-1.510,-8.667,-20.691,-79.712
-0.815,0.149,-1.570,-8.850,-27.283,-77.759
-0.808,0.116,-1.603,-5.859,-36.316,-73.914
-0.810,0.121,-1.589,0.977,-46.631,-69.824
-0.806,0.141,-1.560,9.644,-55.603,-68.481
-0.786,0.136,-1.521,16.479,-60.913,-70.007
-0.765,0.112,-1.498,23.682,-62.317,-73.608
-0.745,0.072,-1.476,33.020,-62.073,-77.942
-0.723,0.040,-1.480,41.504,-61.951,-83.069
-0.681,0.025,-1.430,51.025,-64.453,-87.585
-0.644,-0.025,-1.379,51.514,-67.017,-88.623
-0.608,-0.061,-1.350,48.340,-68.909,-85.999
-0.590,-0.090,-1.323,46.143,-70.618,-82.520
-0.560,-0.126,-1.314,42.603,-71.838,-78.796
-0.523,-0.118,-1.290,41.504,-74.585,-74.219
-0.503,-0.079,-1.265,42.480,-77.820,-68.359
-0.502,-0.036,-1.233,44.617,-80.566,-62.988
-0.503,0.014,-1.179,48.340,-81.848,-59.937
-0.503,0.056,-1.137,53.101,-81.299,-60.059
-0.481,0.070,-1.117,55.664,-79.529,-62.622
-0.440,0.039,-1.111,54.138,-78.918,-65.063
-0.395,-0.010,-1.128,48.340,-81.116,-64.575
-0.354,-0.026,-1.131,39.978,-86.792,-59.387
-0.329,0.012,-1.117,32.654,-93.811,-50.415
-0.314,0.067,-1.089,28.381,-100.159,-41.565
-0.304,0.124,-1.049,26.855,-104.431,-35.645
-0.289,0.172,-1.015,27.771,-106.384,-33.508
-0.277,0.193,-0.987,29.602,-106.750,-34.302
-0.255,0.210,-0.955,30.579,-105.835,-36.072
-0.238,0.218,-0.938,30.884,-103.882,-37.659
-0.223,0.211,-0.947,30.762,-101.746,-38.086
-0.205,0.203,-0.929,30.640,-100.769,-37.170
-0.193,0.208,-0.897,30.701,-100.342,-34.851
-0.179,0.223,-0.884,28.625,-99.365,-31.799
-0.166,0.239,-0.892,24.902,-98.816,-28.564
-0.154,0.249,-0.890,21.301,-99.670,-24.719
-0.151,0.262,-0.886,19.104,-100.525,-20.996
-0.151,0.289,-0.889,18.799,-100.342,-17.883
-0.151,0.329,-0.871,20.691,-100.281,-16.357
-0.147,0.354,-0.818,22.705,-101.013,-16.663
-0.128,0.353,-0.742,21.912,-101.013,-17.944
-0.105,0.342,-0.708,17.273,-99.060,-18.555
-0.071,0.330,-0.713,9.216,-96.436,-17.944
-0.045,0.313,-0.730,2.319,-94.849,-15.320
-0.031,0.298,-0.745,-1.038,-93.750,-11.414
-0.024,0.276,-0.759,-1.587,-92.468,-7.446
-0.010,0.260,-0.768,-1.160,-91.064,-3.296
-0.006,0.269,-0.748,0.244,-90.576,1.648
-0.009,0.311,-0.708,1.343,-90.881,5.920
-0.007,0.359,-0.664,-1.099,-91.614,8.118
-0.000,0.381,-0.624,-7.141,-92.224,8.057
0.009,0.360,-0.594,-14.587,-92.346,7.080
0.028,0.319,-0.599,-22.400,-91.370,6.775
0.048,0.274,-0.616,-29.053,-89.966,8.789
0.060,0.245,-0.629,-32.959,-88.440,13.184
0.060,0.222,-0.650,-34.058,-87.524,19.653

0.575,-0.134,-0.561,-215.759,-61.829,-28.748
0.683,-0.381,-0.524,-188.538,-43.945,-32.043
0.683,-0.438,-0.544,-154.968,-22.034,-30.212
0.638,-0.435,-0.548,-121.765,-3.357,-25.757
0.612,-0.455,-0.516,-98.877,8.118,-23.071
0.592,-0.497,-0.511,-88.806,12.817,-22.583
0.579,-0.539,-0.535,-97.412,9.888,-20.142
0.549,-0.545,-0.525,-117.676,0.061,-16.357
0.513,-0.540,-0.472,-139.648,-10.193,-14.648
0.465,-0.525,-0.391,-158.691,-15.991,-15.747
0.406,-0.510,-0.355,-171.265,-14.099,-19.897
0.373,-0.485,-0.292,-177.795,-8.057,-27.405
0.384,-0.568,-0.340,-185.791,-0.671,-34.668
0.416,-0.680,-0.392,-190.796,3.357,-38.208
0.437,-0.735,-0.421,-188.965,3.723,-36.133
0.429,-0.729,-0.363,-181.641,1.526,-29.175
0.407,-0.671,-0.297,-181.763,-2.136,-21.057
0.352,-0.530,-0.275,-196.228,-8.179,-14.648
0.273,-0.536,-0.300,-231.079,-19.287,-11.719
0.251,-0.449,-0.364,-269.226,-38.147,-12.146
0.211,-0.407,-0.410,-301.270,-58.044,-17.700
0.180,-0.408,-0.417,-320.312,-72.937,-27.222
0.157,-0.406,-0.395,-327.820,-80.383,-38.452
0.176,-0.343,-0.549,-325.623,-78.247,-48.279
0.125,-0.217,-0.696,-305.054,-74.646,-59.814
0.068,-0.157,-0.747,-275.635,-75.745,-79.468
0.059,-0.200,-0.596,-232.483,-79.163,-104.614
0.066,-0.411,-0.261,-175.415,-75.623,-131.165
0.087,-0.404,-0.106,-118.530,-53.955,-151.794
0.094,-0.287,-0.145,-89.417,-18.860,-164.429
0.070,-0.289,-0.247,-90.942,15.320,-173.157
0.046,-0.328,-0.382,-98.511,39.063,-181.519
0.015,-0.336,-0.510,-91.736,48.340,-190.613
-0.015,-0.349,-0.581,-71.960,43.884,-201.477
-0.052,-0.388,-0.591,-49.072,29.602,-212.341
-0.079,-0.420,-0.568,-29.968,10.437,-221.130
-0.060,-0.500,-0.458,-17.517,-8.911,-228.027
-0.020,-0.717,-0.252,-6.348,-22.583,-232.788
0.034,-0.847,-0.123,8.118,-22.583,-231.995
0.075,-0.805,-0.129,17.517,-8.179,-224.243
0.086,-0.757,-0.228,10.254,11.597,-212.280
0.089,-0.767,-0.347,-9.644,27.161,-200.256
0.074,-0.796,-0.448,-24.902,32.532,-191.223
0.015,-0.800,-0.503,-21.118,28.809,-184.387
-0.042,-0.735,-0.516,-3.235,20.081,-177.673
-0.086,-0.676,-0.505,13.550,9.155,-171.875
-0.139,-0.701,-0.475,23.193,-2.380,-167.908
-0.166,-0.785,-0.441,29.846,-11.841,-165.222
-0.161,-0.859,-0.427,36.255,-17.822,-162.476
-0.142,-0.920,-0.450,41.565,-19.226,-160.217
-0.128,-0.980,-0.471,45.776,-18.555,-158.386
-0.132,-1.022,-0.484,51.636,-16.968,-155.945
-0.149,-1.028,-0.495,62.744,-15.442,-151.001
-0.186,-0.997,-0.487,75.745,-15.015,-142.883
-0.239,-0.984,-0.451,85.571,-16.235,-134.094
-0.294,-0.983,-0.415,91.248,-17.273,-126.831
-0.348,-0.970,-0.396,87.708,-15.625,-122.620
-0.337,-1.013,-0.506,75.623,-12.024,-122.437
-0.363,-1.078,-0.526,72.388,-13.428,-124.695
-0.360,-1.159,-0.543,68.054,-14.221,-128.662
-0.337,-1.223,-0.621,69.580,-10.864,-129.883
-0.341,-1.218,-0.670,80.322,-8.606,-124.756
-0.372,-1.214,-0.741,89.355,-8.606,-114.563
-0.419,-1.197,-0.797,96.252,-11.902,-101.563
-0.480,-1.158,-0.833,103.027,-18.677,-87.585
-0.515,-1.104,-0.870,107.178,-27.710,-75.500
-0.520,-1.072,-0.897,107.788,-36.804,-67.749
-0.514,-1.088,-0.903,109.436,-43.823,-66.284
-0.523,-1.093,-0.809,113.037,-45.898,-68.481
-0.542,-1.071,-0.816,114.258,-38.147,-72.571
-0.583,-1.073,-0.819,119.080,-27.344,-78.430
-0.602,-1.079,-0.877,121.155,-17.090,-82.458
-0.626,-1.060,-0.949,128.052,-13.000,-83.130
-0.641,-1.041,-1.021,133.667,-16.235,-82.153
-0.639,-1.045,-1.067,135.315,-25.269,-80.566
-0.631,-1.069,-1.081,134.644,-37.964,-78.125
-0.609,-1.114,-1.068,130.920,-51.086,-73.914
-0.602,-1.168,-1.037,126.343,-61.340,-67.139
-0.605,-1.169,-1.023,125.122,-65.613,-57.312
-0.635,-1.159,-1.054,124.390,-66.101,-45.898
-0.690,-1.132,-1.096,120.972,-67.261,-34.119
-0.743,-1.091,-1.140,114.929,-71.472,-23.560
-0.766,-1.066,-1.172,109.863,-77.759,-17.395
-0.751,-1.078,-1.218,106.567,-83.252,-16.174
-0.720,-1.112,-1.260,104.980,-87.585,-18.433
-0.685,-1.157,-1.288,108.215,-90.759,-22.461
-0.643,-1.210,-1.295,118.469,-91.858,-26.062
-0.604,-1.247,-1.302,132.019,-90.515,-26.550
-0.572,-1.261,-1.313,145.386,-87.341,-23.132
-0.559,-1.255,-1.316,158.936,-85.144,-15.991
-0.568,-1.214,-1.297,170.593,-85.083,-7.080
-0.584,-1.136,-1.274,180.298,-87.158,1.953
-0.570,-1.064,-1.258,185.669,-90.820,10.254
-0.559,-1.027,-1.234,184.753,-94.421,16.418
-0.551,-0.990,-1.214,180.359,-96.558,19.592
-0.542,-0.955,-1.216,175.476,-98.022,20.325
-0.531,-0.915,-1.212,172.180,-99.792,18.921
-0.514,-0.892,-1.185,169.617,-102.234,17.029
-0.497,-0.889,-1.179,168.030,-103.271,15.625
-0.472,-0.853,-1.198,168.274,-102.539,16.113
-0.448,-0.798,-1.232,169.373,-100.525,18.921
-0.448,-0.749,-1.222,171.265,-98.206,22.583
-0.452,-0.711,-1.197,174.255,-93.445,25.391
-0.448,-0.692,-1.181,179.199,-85.999,26.855
-0.426,-0.689,-1.190,182.556,-79.163,26.489
-0.390,-0.682,-1.205,180.054,-76.599,25.513
-0.378,-0.664,-1.184,174.316,-78.979,26.306
-0.370,-0.595,-1.141,167.542,-84.473,29.419
-0.352,-0.525,-1.093,156.921,-90.210,33.081
-0.323,-0.475,-1.062,140.869,-93.689,35.400
-0.309,-0.454,-1.041,124.756,-93.994,35.828
-0.285,-0.408,-1.059,111.694,-92.041,35.461
-0.259,-0.362,-1.106,102.173,-90.149,35.156
-0.241,-0.365,-1.114,94.971,-90.576,34.363
-0.215,-0.360,-1.093,92.407,-92.590,34.912
-0.189,-0.329,-1.070,90.271,-93.811,37.903
-0.176,-0.297,-1.036,86.365,-94.910,41.870
-0.174,-0.233,-1.017,81.482,-95.703,45.959
-0.180,-0.149,-0.988,76.477,-96.069,49.011
-0.194,-0.095,-0.951,71.289,-95.886,48.889
-0.187,-0.025,-0.960,64.941,-94.482,46.265
-0.169,0.011,-0.958,58.594,-93.506,42.297
-0.143,0.023,-0.950,54.138,-93.628,38.147
-0.115,0.017,-0.957,50.842,-93.384,35.583
-0.084,-0.003,-0.955,49.927,-93.140,35.645
-0.073,0.008,-0.950,50.049,-93.201,38.757
-0.075,0.051,-0.930,49.194,-94.116,42.908
-0.076,0.085,-0.921,46.204,-94.971,45.898
-0.067,0.072,-0.891,45.044,-95.032,46.997
-0.044,0.054,-0.865,48.828,-92.590,47.607
-0.008,0.038,-0.855,53.223,-88.623,49.744
0.009,0.042,-0.855,56.885,-85.266,53.711
0.010,0.093,-0.838,60.181,-83.435,59.570
-0.015,0.160,-0.795,63.843,-83.069,64.148
-0.044,0.233,-0.760,66.589,-82.458,65.308
-0.046,0.273,-0.732,67.993,-81.848,62.744
-0.028,0.267,-0.682,69.641,-80.627,57.678
-0.002,0.232,-0.622,73.059,-77.881,53.711
0.015,0.208,-0.599,74.463,-72.998,51.941
0.031,0.213,-0.614,72.205,-68.054,52.673
0.050,0.209,-0.607,69.397,-65.674,54.443
0.053,0.199,-0.558,67.688,-65.918,56.396
0.053,0.238,-0.527,63.293,-67.566,58.105
0.050,0.286,-0.521,53.467,-70.496,59.204
0.053,0.314,-0.526,41.199,-74.585,59.875
0.051,0.314,-0.540,30.457,-78.491,59.509
0.049,0.319,-0.531,26.978,-80.811,58.838
0.039,0.342,-0.502,30.029,-80.811,58.289
0.031,0.341,-0.425,34.058,-77.087,58.044

0.503,0.341,-0.913,-10.925,-7.263,-9.033
0.497,0.266,-0.914,-8.362,-16.846,2.136
0.486,0.365,-0.876,2.258,-28.259,13.306
0.392,0.415,-0.745,18.372,-31.616,19.043
0.403,0.430,-0.805,21.973,-31.250,20.142
0.399,0.365,-0.883,17.090,-33.447,22.583
0.378,0.359,-0.859,19.958,-37.964,26.855
0.348,0.392,-0.781,28.503,-40.588,30.579
0.317,0.414,-0.713,34.546,-39.307,32.532
0.294,0.428,-0.688,38.269,-34.790,33.325
0.279,0.439,-0.682,41.321,-29.907,33.020
0.273,0.432,-0.642,44.556,-26.672,32.043
0.258,0.391,-0.620,47.546,-23.376,30.334
0.244,0.386,-0.613,52.185,-20.081,30.579
0.204,0.344,-0.599,56.213,-18.066,32.898
0.165,0.342,-0.581,62.439,-16.602,34.912
0.144,0.370,-0.567,70.251,-15.137,36.560
0.153,0.375,-0.537,73.364,-14.648,36.926
0.154,0.371,-0.487,69.702,-16.357,38.208
0.149,0.386,-0.448,61.462,-18.494,41.626
0.115,0.453,-0.458,51.147,-18.921,46.387
0.119,0.473,-0.397,32.959,-17.944,50.110
0.115,0.496,-0.394,18.494,-19.470,52.063
0.103,0.510,-0.366,11.169,-18.555,51.453
0.081,0.491,-0.378,7.812,-15.259,50.476
0.092,0.476,-0.374,9.827,-10.986,49.988
0.100,0.455,-0.377,11.292,-5.798,52.002
0.092,0.461,-0.382,19.714,0.427,55.481
0.081,0.514,-0.374,34.424,6.409,58.899
0.054,0.570,-0.353,50.598,11.414,60.059
0.017,0.572,-0.289,63.965,14.648,58.289
0.009,0.546,-0.182,72.327,16.846,55.359
0.005,0.541,-0.130,73.120,20.081,53.894
0.003,0.560,-0.121,64.636,23.071,54.504
0.009,0.573,-0.106,52.856,24.292,56.213
0.021,0.599,-0.091,43.030,23.926,58.105
0.024,0.635,-0.065,38.025,23.682,59.875
-0.003,0.651,-0.020,36.316,23.682,60.791
-0.024,0.659,0.023,36.743,25.574,60.852
-0.033,0.649,0.063,37.842,29.663,60.608
-0.028,0.612,0.113,39.856,35.645,60.974
-0.026,0.567,0.164,43.030,43.335,64.087
-0.022,0.577,0.193,45.288,51.880,71.106
-0.043,0.639,0.191,42.419,59.875,81.116
-0.087,0.724,0.160,35.339,65.491,91.858
-0.135,0.812,0.137,26.794,68.115,99.731
-0.198,0.854,0.115,18.860,68.909,103.149
-0.219,0.886,0.105,14.526,69.397,103.210
-0.235,0.908,0.091,13.733,70.618,102.478
-0.226,0.940,0.094,16.907,71.472,100.769
-0.222,0.948,0.106,18.616,72.571,98.877
-0.265,0.881,0.134,14.404,76.355,99.609
-0.302,0.866,0.052,14.832,82.153,104.614
-0.238,0.969,0.093,30.518,83.435,111.877
-0.240,1.017,0.157,34.790,86.060,114.868
-0.251,1.036,0.177,34.912,90.088,115.295
-0.282,1.052,0.191,34.363,93.140,116.455
-0.298,1.070,0.222,33.142,94.604,117.859
-0.334,1.069,0.258,30.640,96.191,118.469
-0.357,1.086,0.289,26.062,99.182,118.896
-0.375,1.090,0.309,15.503,103.943,119.080
-0.376,1.112,0.289,-0.122,109.253,120.422
-0.405,1.125,0.230,-18.127,113.647,123.047
-0.450,1.153,0.146,-36.194,115.662,126.465
-0.495,1.211,0.067,-51.880,115.540,129.761
-0.514,1.301,0.049,-64.880,114.502,129.089
-0.609,1.284,0.012,-80.261,115.662,124.512
-0.672,1.352,-0.107,-89.355,117.554,119.568
-0.697,1.404,-0.183,-99.548,116.699,112.549
-0.738,1.396,-0.267,-117.126,115.356,104.065
-0.776,1.377,-0.383,-131.897,112.549,97.534
-0.807,1.362,-0.497,-140.808,107.971,92.773
-0.842,1.336,-0.608,-139.160,101.379,89.050
-0.842,1.350,-0.647,-126.892,92.529,85.754
-0.884,1.346,-0.634,-109.436,83.984,81.604
-0.911,1.413,-0.591,-91.064,78.552,76.050
-0.954,1.458,-0.545,-77.881,76.721,68.298
-0.979,1.476,-0.514,-70.251,76.965,56.641
-1.002,1.462,-0.502,-68.848,78.186,42.419
-1.019,1.423,-0.500,-72.510,79.163,27.222
-1.001,1.381,-0.528,-79.834,79.285,11.292
-0.976,1.318,-0.604,-91.553,77.881,-3.174
-0.955,1.242,-0.706,-104.980,73.364,-15.259
-0.941,1.156,-0.795,-116.333,64.575,-25.574
-0.930,1.065,-0.838,-121.216,53.101,-33.936
-0.918,0.995,-0.844,-118.835,42.847,-39.551
-0.900,0.946,-0.821,-111.267,35.461,-43.152
-0.885,0.920,-0.803,-101.074,32.471,-44.739
-0.880,0.907,-0.796,-89.783,33.447,-45.715
-0.878,0.910,-0.807,-78.491,36.316,-46.875
-0.877,0.913,-0.829,-68.176,38.879,-49.377
-0.874,0.917,-0.865,-60.974,39.734,-53.406
-0.868,0.909,-0.911,-58.655,38.025,-58.533
-0.860,0.891,-0.956,-58.777,33.875,-63.660
-0.851,0.864,-0.981,-58.228,27.527,-69.336
-0.837,0.826,-1.008,-55.298,20.630,-74.219
-0.822,0.805,-1.001,-49.377,12.756,-77.209
-0.810,0.780,-1.010,-45.166,6.165,-79.102
-0.793,0.766,-1.008,-38.452,0.793,-80.872
-0.775,0.749,-0.999,-30.701,-2.625,-81.299
-0.760,0.743,-0.996,-21.118,-3.479,-81.970
-0.748,0.741,-0.999,-9.644,-2.930,-83.008
-0.744,0.745,-1.001,2.625,-2.197,-85.205
-0.724,0.741,-0.994,11.902,-2.441,-88.074
-0.704,0.726,-0.983,17.212,-3.479,-90.149
-0.689,0.708,-0.984,20.935,-5.371,-91.797
-0.674,0.678,-1.003,21.423,-8.240,-92.529
-0.654,0.647,-1.011,20.874,-13.000,-92.346
-0.620,0.631,-0.984,22.949,-18.982,-89.844
-0.590,0.630,-0.949,25.635,-23.682,-85.083
-0.579,0.644,-0.922,30.823,-26.794,-79.773
-0.568,0.667,-0.887,36.560,-28.870,-75.623
-0.566,0.692,-0.851,42.480,-29.968,-72.754
-0.567,0.707,-0.831,45.959,-30.457,-71.411
-0.561,0.721,-0.825,46.509,-31.006,-71.472
-0.556,0.718,-0.839,44.739,-31.860,-72.266
-0.549,0.704,-0.871,42.419,-33.875,-73.059
-0.530,0.691,-0.904,41.321,-37.598,-73.425
-0.511,0.683,-0.926,42.786,-42.786,-72.937
-0.496,0.673,-0.915,47.668,-49.805,-73.059
-0.481,0.673,-0.852,55.908,-56.946,-73.303
-0.473,0.681,-0.773,65.613,-61.890,-73.914
-0.467,0.688,-0.699,73.608,-63.660,-75.256
-0.455,0.698,-0.636,77.698,-63.354,-77.026
-0.439,0.704,-0.590,79.407,-61.646,-78.857
-0.417,0.711,-0.556,79.895,-59.448,-81.238
-0.391,0.716,-0.528,79.407,-57.678,-83.801
-0.383,0.703,-0.509,77.209,-56.824,-85.815
-0.374,0.675,-0.515,73.059,-56.824,-86.243
-0.355,0.670,-0.521,68.604,-57.617,-84.106
-0.340,0.689,-0.508,65.979,-59.570,-80.811
-0.328,0.702,-0.485,63.721,-62.500,-79.407
-0.311,0.702,-0.457,59.998,-65.369,-79.041
-0.285,0.714,-0.432,56.580,-67.261,-79.224
-0.266,0.714,-0.418,52.979,-68.909,-80.139
-0.245,0.697,-0.420,48.645,-70.679,-81.543
-0.220,0.681,-0.415,45.532,-72.693,-82.275
-0.200,0.665,-0.408,44.006,-74.463,-82.336
-0.183,0.631,-0.402,43.335,-75.806,-82.092
-0.160,0.594,-0.406,44.189,-77.332,-80.078
-0.126,0.555,-0.421,44.495,-80.078,-76.294
-0.103,0.535,-0.407,45.227,-85.144,-70.740
-0.091,0.529,-0.354,47.974,-91.492,-64.880
-0.078,0.535,-0.276,51.025,-96.863,-60.181
-0.065,0.544,-0.208,53.040,-99.548,-56.091
-0.058,0.543,-0.156,52.673,-99.548,-52.917
-0.055,0.528,-0.118,51.208,-98.083,-50.659
-0.047,0.520,-0.081,49.500,-95.825,-48.462
-0.034,0.517,-0.042,48.157,-92.834,-46.021

0.258,1.156,-0.358,-158.142,-32.043,-23.010
0.295,0.975,-0.526,-164.001,-41.626,-28.015
0.347,0.888,-0.610,-137.756,-50.720,-30.701
0.365,0.799,-0.521,-95.032,-52.185,-29.846
0.398,0.771,-0.414,-59.509,-48.706,-24.109
0.412,0.700,-0.415,-44.373,-42.664,-15.381
0.398,0.730,-0.498,-41.809,-38.879,-4.272
0.346,0.795,-0.613,-45.349,-41.199,6.287
0.304,0.828,-0.644,-45.532,-48.584,11.353
0.294,0.834,-0.607,-39.917,-55.969,10.437
0.312,0.800,-0.603,-35.278,-60.974,7.202
0.328,0.752,-0.577,-31.555,-63.843,4.822
0.357,0.706,-0.601,-28.076,-63.660,5.310
0.367,0.639,-0.635,-22.827,-61.646,8.179
0.356,0.595,-0.646,-11.719,-59.875,12.329
0.310,0.584,-0.609,3.784,-59.265,17.944
0.260,0.600,-0.550,16.907,-59.753,23.804
0.198,0.603,-0.536,22.949,-60.608,28.625
0.149,0.614,-0.538,22.522,-61.584,32.654
0.106,0.672,-0.507,21.973,-62.988,35.522
0.078,0.725,-0.477,22.888,-61.951,34.790
0.154,0.767,-0.257,22.583,-58.350,31.128
0.055,0.813,-0.393,22.949,-51.819,26.489
0.058,0.806,-0.353,22.156,-48.645,21.423
0.062,0.799,-0.332,20.996,-44.678,17.090
0.065,0.784,-0.333,17.517,-41.016,14.343
0.061,0.757,-0.346,13.977,-39.429,12.817
0.064,0.747,-0.342,9.460,-41.382,13.123
0.062,0.734,-0.298,5.188,-45.471,14.099
0.062,0.709,-0.253,0.854,-49.683,15.320
0.065,0.676,-0.245,-4.211,-51.819,16.907
0.068,0.638,-0.246,-7.507,-53.101,19.836
0.058,0.614,-0.236,-6.226,-54.443,24.414
0.040,0.603,-0.192,-0.977,-55.359,29.236
0.014,0.593,-0.117,6.775,-54.382,33.203
-0.009,0.599,-0.046,13.916,-51.270,36.133
-0.027,0.623,0.003,15.198,-47.668,38.452
-0.039,0.642,0.042,11.047,-44.128,40.588
-0.053,0.652,0.077,5.127,-40.588,42.358
-0.073,0.657,0.107,-1.221,-37.415,43.152
-0.090,0.660,0.141,-10.864,-34.851,43.091
-0.106,0.660,0.163,-23.254,-32.654,43.091
-0.115,0.642,0.175,-36.194,-29.541,43.884
-0.126,0.615,0.189,-47.302,-25.818,44.373
-0.134,0.601,0.205,-54.443,-20.935,45.471
-0.140,0.603,0.208,-59.082,-14.771,47.424
-0.130,0.613,0.202,-62.927,-7.996,50.171
-0.136,0.606,0.189,-65.063,-1.221,53.589
-0.141,0.607,0.180,-64.087,6.042,57.739
-0.151,0.610,0.169,-60.913,13.184,61.646
-0.170,0.610,0.162,-56.824,19.775,65.369
-0.195,0.606,0.157,-53.101,25.146,69.153
-0.207,0.602,0.184,-49.255,29.907,72.815
-0.187,0.636,0.225,-45.471,34.546,76.538
-0.158,0.703,0.247,-45.471,39.246,79.773
-0.167,0.746,0.253,-52.124,44.067,82.031
-0.198,0.772,0.245,-63.049,48.096,83.801
-0.212,0.806,0.231,-75.317,51.697,84.167
-0.234,0.827,0.212,-85.510,55.664,82.336
-0.255,0.821,0.183,-92.285,59.448,78.064
-0.234,0.808,0.158,-95.947,62.561,72.876
-0.202,0.778,0.122,-99.731,65.613,70.068
-0.175,0.786,0.116,-102.051,70.068,72.998
-0.242,0.717,0.054,-104.004,79.468,80.627
-0.240,0.785,-0.030,-88.501,90.027,91.492
-0.269,0.897,-0.035,-65.430,95.764,100.952
-0.338,0.967,0.011,-55.359,98.938,103.210
-0.372,1.027,0.040,-57.007,101.318,103.638
-0.406,1.070,0.053,-64.453,103.821,103.027
-0.446,1.088,0.057,-74.951,106.323,99.976
-0.462,1.096,0.037,-86.121,110.962,96.497
-0.471,1.086,-0.018,-93.628,117.737,94.299
-0.484,1.075,-0.080,-92.590,125.916,93.689
-0.489,1.110,-0.081,-83.496,134.216,93.018
-0.539,1.098,-0.082,-76.294,143.738,90.820
-0.582,1.117,-0.125,-68.237,152.527,88.867
-0.617,1.140,-0.142,-64.026,156.006,85.205
-0.667,1.129,-0.154,-71.899,155.090,79.956
-0.708,1.115,-0.188,-89.600,151.978,75.623
-0.742,1.108,-0.247,-113.403,148.804,73.914
-0.779,1.120,-0.332,-137.512,147.522,71.960
-0.810,1.134,-0.448,-157.837,148.254,67.383
-0.878,1.113,-0.623,-171.692,149.231,59.937
-0.950,1.105,-0.840,-173.096,146.301,49.927
-0.947,1.133,-0.930,-163.818,136.719,38.635
-0.936,1.126,-0.995,-154.114,126.648,24.170
-0.920,1.076,-1.007,-141.724,116.699,9.094
-0.893,1.026,-0.987,-127.625,107.178,-1.465
-0.887,0.997,-0.971,-113.464,100.464,-5.493
-0.887,1.001,-0.959,-100.037,96.069,-5.249
-0.905,1.022,-0.952,-88.379,92.590,-3.906
-0.941,1.059,-0.927,-78.003,88.684,-4.089
-0.980,1.095,-0.898,-71.411,84.167,-6.958
-1.005,1.106,-0.896,-71.716,79.468,-12.512
-1.018,1.110,-0.925,-78.552,73.975,-19.592
-1.025,1.101,-0.961,-86.487,67.200,-27.710
-1.030,1.069,-1.007,-91.797,59.692,-36.865
-1.030,1.009,-1.063,-94.910,51.880,-46.692
-1.035,0.935,-1.122,-93.628,44.067,-54.688
-1.031,0.881,-1.153,-86.548,36.682,-59.631
-1.020,0.859,-1.148,-75.195,30.334,-61.951
-1.019,0.879,-1.128,-61.829,26.123,-63.293
-1.022,0.905,-1.102,-48.523,24.658,-65.430
-1.023,0.914,-1.096,-37.476,24.902,-70.129
-1.025,0.902,-1.093,-27.832,25.635,-77.087
-1.015,0.880,-1.092,-19.714,26.001,-85.327
-0.998,0.848,-1.107,-14.465,25.146,-94.116
-0.973,0.801,-1.132,-11.719,22.461,-102.051
-0.937,0.748,-1.152,-10.254,17.456,-108.459
-0.898,0.684,-1.169,-8.362,11.047,-112.793
-0.857,0.638,-1.159,-4.089,4.211,-114.807
-0.828,0.608,-1.137,2.686,-1.587,-115.051
-0.801,0.583,-1.105,9.583,-5.432,-114.502
-0.775,0.570,-1.074,17.334,-7.690,-113.159
-0.755,0.571,-1.055,24.414,-8.484,-111.938
-0.733,0.565,-1.035,29.297,-9.216,-111.084
-0.705,0.563,-1.019,31.006,-10.742,-109.924
-0.679,0.549,-1.018,29.968,-12.634,-108.337
-0.654,0.524,-1.037,28.137,-15.564,-107.056
-0.618,0.506,-1.061,26.672,-20.508,-105.042
-0.583,0.506,-1.053,24.475,-27.527,-102.112
-0.561,0.502,-1.028,22.278,-34.729,-98.999
-0.545,0.500,-1.013,19.470,-40.100,-95.764
-0.526,0.500,-1.019,16.357,-43.274,-92.041
-0.512,0.496,-1.042,15.442,-45.410,-87.341
-0.499,0.502,-1.063,18.860,-47.363,-81.726
-0.488,0.523,-1.071,26.550,-49.438,-76.355
-0.484,0.554,-1.047,37.720,-52.368,-72.510
-0.485,0.582,-0.991,49.194,-55.847,-70.923
-0.480,0.618,-0.920,57.800,-58.533,-72.083
-0.467,0.642,-0.870,61.279,-60.364,-75.989
-0.449,0.626,-0.856,59.204,-62.012,-82.642
-0.432,0.584,-0.856,53.406,-64.819,-89.355
-0.404,0.537,-0.863,47.180,-69.153,-93.079
-0.370,0.493,-0.876,41.809,-75.073,-92.896
-0.336,0.453,-0.867,38.696,-82.275,-89.111
-0.311,0.440,-0.835,37.170,-90.454,-82.825
-0.302,0.454,-0.780,35.278,-97.961,-75.745
-0.297,0.462,-0.708,33.813,-103.516,-69.092
-0.287,0.482,-0.641,34.546,-105.225,-62.805
-0.272,0.516,-0.580,38.147,-102.600,-58.044
-0.261,0.542,-0.530,42.969,-97.168,-55.969
-0.252,0.554,-0.481,46.570,-91.003,-56.396
-0.232,0.567,-0.462,44.250,-85.510,-57.861
-0.205,0.573,-0.479,36.011,-82.031,-58.777
-0.190,0.553,-0.498,26.367,-82.214,-58.655
-0.179,0.537,-0.492,19.531,-85.144,-57.251
-0.170,0.535,-0.495,13.977,-88.867,-54.382
-0.154,0.541,-0.494,7.812,-93.079,-50.354

0.348,1.217,-0.493,-104.675,-46.326,-4.089
0.362,1.114,-0.459,-98.022,-49.316,-7.019
0.394,1.110,-0.429,-80.444,-49.805,-9.521
0.369,1.042,-0.365,-63.049,-42.664,-13.733
0.388,0.991,-0.358,-58.350,-35.645,-17.334
0.414,0.896,-0.536,-70.496,-31.128,-18.005
0.420,0.797,-0.726,-82.214,-33.752,-15.930
0.394,0.773,-0.751,-81.482,-41.748,-12.512
0.383,0.757,-0.678,-74.524,-48.462,-11.047
0.386,0.697,-0.713,-73.730,-50.781,-11.841
0.401,0.589,-0.738,-75.623,-52.063,-12.207
0.417,0.545,-0.716,-74.097,-53.162,-10.498
0.441,0.516,-0.741,-74.585,-53.284,-8.057
0.461,0.431,-0.732,-76.965,-53.711,-6.287
0.440,0.328,-0.709,-76.477,-53.650,-3.784
0.387,0.285,-0.731,-73.181,-51.941,1.587
0.319,0.243,-0.777,-65.063,-48.767,8.118
0.281,0.240,-0.786,-47.913,-46.265,14.221
0.255,0.227,-0.734,-29.419,-45.288,19.531
0.231,0.229,-0.674,-19.897,-43.823,25.940
0.265,0.266,-0.591,-16.113,-40.039,34.546
0.128,0.292,-0.606,-16.235,-33.203,42.480
0.126,0.343,-0.580,-15.320,-30.823,47.363
0.104,0.382,-0.575,-15.198,-29.053,48.523
0.078,0.411,-0.571,-17.212,-29.175,47.302
0.068,0.431,-0.542,-21.667,-32.837,45.044
0.061,0.452,-0.500,-30.518,-39.185,42.175
0.057,0.455,-0.440,-42.725,-46.448,38.452
0.060,0.445,-0.361,-54.993,-51.697,35.278
0.062,0.455,-0.289,-63.721,-51.147,33.630
0.073,0.459,-0.231,-67.749,-43.823,32.654
0.066,0.435,-0.230,-66.833,-31.860,31.860
0.078,0.449,-0.183,-58.533,-19.226,31.311
0.070,0.425,-0.159,-59.631,-7.202,32.837
0.057,0.420,-0.193,-64.026,3.357,35.278
0.057,0.457,-0.223,-63.599,9.277,37.292
0.041,0.461,-0.225,-64.636,10.620,37.354
0.038,0.422,-0.228,-68.420,9.277,37.048
0.047,0.392,-0.219,-72.937,6.897,38.208
0.057,0.385,-0.176,-74.890,5.615,42.053
0.052,0.380,-0.093,-71.960,8.728,47.852
0.036,0.397,-0.042,-66.895,17.578,54.688
0.019,0.451,-0.052,-65.857,29.602,61.523
-0.014,0.506,-0.071,-68.787,40.894,67.139
-0.060,0.555,-0.072,-71.167,50.232,70.435
-0.097,0.600,-0.052,-74.341,59.937,70.862
-0.146,0.616,-0.107,-80.505,73.364,70.251
-0.166,0.650,-0.169,-78.552,85.938,68.298
-0.205,0.659,-0.263,-75.439,97.107,66.284
-0.227,0.687,-0.349,-69.153,107.056,65.796
-0.257,0.718,-0.410,-57.678,116.394,65.857
-0.285,0.749,-0.408,-39.124,124.634,64.636
-0.290,0.796,-0.387,-19.653,132.935,62.744
-0.298,0.857,-0.338,-7.385,140.137,59.998
-0.338,0.861,-0.376,-10.437,146.606,57.495
-0.321,0.903,-0.383,-14.648,148.682,54.871
-0.325,0.928,-0.391,-25.757,148.499,51.697
-0.335,0.915,-0.434,-41.382,147.278,46.631
-0.344,0.869,-0.497,-53.650,143.616,41.931
-0.351,0.828,-0.552,-62.012,138.672,40.100
-0.369,0.822,-0.566,-65.186,133.179,41.321
-0.386,0.845,-0.541,-66.711,128.662,43.884
-0.402,0.879,-0.519,-71.838,127.075,45.959
-0.430,0.913,-0.538,-80.811,129.089,46.875
-0.455,0.958,-0.548,-91.919,133.057,46.143
-0.499,0.946,-0.648,-111.023,141.296,43.152
-0.552,0.911,-0.836,-118.347,149.231,36.987
-0.579,0.900,-0.914,-105.042,150.024,29.053
-0.605,0.878,-0.984,-94.177,149.170,21.667
-0.609,0.850,-1.038,-82.581,146.545,16.235
-0.610,0.851,-1.062,-71.472,142.456,13.855
-0.624,0.859,-1.075,-62.378,138.550,12.573
-0.647,0.870,-1.075,-54.932,135.498,10.681
-0.670,0.880,-1.089,-50.537,133.301,8.118
-0.695,0.879,-1.125,-50.049,131.531,5.249
-0.726,0.886,-1.170,-52.673,128.967,2.869
-0.767,0.914,-1.214,-54.871,124.695,0.488
-0.805,0.959,-1.246,-55.969,118.408,-2.808
-0.826,0.985,-1.252,-57.251,109.924,-8.728
-0.832,0.995,-1.247,-59.631,100.952,-18.311
-0.830,0.985,-1.254,-62.500,93.079,-30.090
-0.817,0.934,-1.271,-65.979,85.999,-43.030
-0.798,0.865,-1.296,-70.618,78.308,-55.176
-0.786,0.792,-1.318,-75.378,69.580,-65.247
-0.787,0.720,-1.340,-79.163,60.730,-72.449
-0.782,0.670,-1.360,-81.970,52.795,-76.477
-0.790,0.634,-1.390,-81.421,46.753,-78.857
-0.802,0.599,-1.425,-76.660,41.260,-81.177
-0.800,0.575,-1.441,-70.129,34.851,-83.740
-0.790,0.563,-1.430,-63.721,27.466,-86.548
-0.783,0.553,-1.413,-58.167,20.142,-89.966
-0.780,0.535,-1.391,-54.626,13.123,-94.604
-0.779,0.512,-1.360,-52.368,6.592,-100.769
-0.764,0.484,-1.345,-52.856,0.671,-107.910
-0.739,0.437,-1.379,-57.007,-3.967,-114.807
-0.717,0.376,-1.438,-63.416,-9.216,-120.239
-0.697,0.328,-1.482,-67.688,-17.212,-123.962
-0.683,0.301,-1.493,-69.580,-27.100,-126.648
-0.687,0.266,-1.496,-69.824,-37.109,-129.150
-0.684,0.240,-1.494,-68.665,-46.753,-131.714
-0.675,0.233,-1.468,-65.613,-55.542,-134.705
-0.664,0.223,-1.423,-60.791,-63.660,-138.977
-0.651,0.222,-1.369,-56.274,-71.167,-144.348
-0.639,0.243,-1.314,-52.612,-78.491,-150.146
-0.627,0.265,-1.239,-53.650,-87.402,-156.494
-0.619,0.248,-1.183,-65.979,-95.703,-163.269
-0.599,0.234,-1.153,-84.167,-102.112,-169.861
-0.582,0.190,-1.165,-102.234,-107.849,-176.147
-0.554,0.107,-1.205,-117.981,-113.464,-182.129
-0.501,-0.001,-1.247,-129.272,-118.774,-185.608
-0.432,-0.129,-1.263,-134.888,-124.329,-186.646
-0.350,-0.248,-1.270,-137.939,-129.333,-183.411
-0.265,-0.335,-1.291,-139.038,-133.484,-174.683
-0.191,-0.395,-1.316,-137.573,-137.817,-161.316
-0.131,-0.460,-1.324,-133.362,-142.090,-144.592
-0.088,-0.511,-1.318,-125.000,-145.630,-125.000
-0.052,-0.545,-1.282,-112.671,-147.278,-104.126
-0.033,-0.566,-1.208,-97.351,-145.569,-82.947
-0.040,-0.584,-1.162,-81.665,-140.015,-62.439
-0.034,-0.564,-1.117,-67.810,-132.141,-43.335
-0.010,-0.537,-1.129,-61.951,-122.253,-24.231
0.000,-0.496,-1.164,-56.885,-113.037,-6.287
-0.021,-0.448,-1.170,-50.354,-107.849,7.507
-0.050,-0.421,-1.149,-44.312,-105.652,18.250
-0.053,-0.378,-1.132,-35.889,-105.103,25.940
-0.057,-0.337,-1.115,-27.344,-105.530,29.846
-0.056,-0.343,-1.093,-21.118,-106.567,30.762
-0.035,-0.365,-1.061,-15.869,-107.788,30.945
-0.011,-0.390,-0.975,-10.925,-108.521,31.494
0.001,-0.411,-0.880,-6.592,-106.934,34.119
0.013,-0.368,-0.864,-6.897,-103.088,39.063
0.027,-0.295,-0.898,-15.442,-100.342,46.082
0.025,-0.250,-0.929,-27.344,-101.196,52.917
0.021,-0.222,-0.933,-34.668,-104.736,57.922
0.029,-0.199,-0.905,-34.790,-108.459,59.814
0.039,-0.193,-0.838,-29.846,-110.657,59.265
0.057,-0.185,-0.758,-23.315,-109.680,57.678
0.078,-0.156,-0.712,-19.470,-105.469,57.129
0.093,-0.157,-0.679,-20.386,-99.365,57.922
0.099,-0.174,-0.662,-23.621,-92.529,59.937
0.106,-0.170,-0.670,-26.917,-85.632,63.416
0.105,-0.155,-0.678,-30.518,-80.383,67.322
0.100,-0.123,-0.694,-33.325,-77.759,70.801
0.107,-0.096,-0.697,-36.499,-77.698,73.792
0.113,-0.090,-0.673,-40.649,-79.529,76.538
0.121,-0.077,-0.628,-46.143,-81.665,79.102
0.131,-0.081,-0.600,-51.392,-82.153,82.092
0.141,-0.081,-0.591,-54.260,-79.895,85.510
0.150,-0.073,-0.582,-54.077,-75.989,89.172

0.641,-0.231,-0.742,-34.241,-17.090,21.973
0.678,-0.261,-0.581,-31.433,-7.996,23.010
0.652,-0.208,-0.653,-23.437,6.348,20.081
0.609,-0.291,-0.734,-18.433,14.832,15.076
0.611,-0.326,-0.823,-19.043,13.367,12.634
0.596,-0.339,-0.821,-20.752,4.272,13.184
0.568,-0.363,-0.775,-27.161,-5.737,14.404
0.556,-0.331,-0.752,-38.147,-12.329,16.663
0.523,-0.328,-0.750,-51.392,-15.808,22.644
0.480,-0.299,-0.714,-60.730,-17.517,25.635
0.465,-0.233,-0.702,-65.491,-16.235,25.208
0.443,-0.221,-0.661,-69.519,-14.038,22.278
0.436,-0.215,-0.604,-71.533,-10.071,17.639
0.428,-0.221,-0.556,-69.092,-3.357,12.268
0.406,-0.249,-0.524,-63.293,5.676,7.996
0.386,-0.275,-0.514,-55.359,15.198,6.042
0.368,-0.272,-0.539,-45.349,23.865,6.958
0.347,-0.235,-0.561,-35.095,29.602,9.705
0.328,-0.175,-0.559,-27.588,32.532,13.611
0.296,-0.101,-0.533,-25.635,33.142,17.090
0.206,-0.017,-0.555,-32.288,32.410,18.677
0.194,0.046,-0.479,-45.044,32.104,17.151
0.158,0.103,-0.464,-61.096,30.273,12.573
0.143,0.147,-0.452,-80.505,28.015,4.578
0.130,0.150,-0.443,-97.412,27.100,-5.554
0.118,0.142,-0.451,-111.389,27.405,-15.747
0.125,0.142,-0.477,-122.498,29.297,-24.902
0.150,0.149,-0.501,-128.052,33.081,-32.410
0.173,0.137,-0.506,-126.282,39.063,-39.185
0.181,0.100,-0.483,-118.591,47.607,-45.593
0.173,0.096,-0.494,-108.093,58.777,-51.086
0.152,0.098,-0.510,-100.403,70.435,-54.993
0.127,0.092,-0.543,-94.971,79.773,-58.289
0.123,0.095,-0.591,-90.576,86.121,-61.218
0.138,0.083,-0.655,-89.661,88.867,-64.941
0.156,0.044,-0.693,-88.745,87.952,-68.970
0.167,-0.000,-0.708,-83.984,85.571,-71.167
0.173,-0.035,-0.697,-75.317,83.679,-70.374
0.170,-0.059,-0.681,-65.735,83.923,-66.956
0.159,-0.053,-0.690,-56.396,87.341,-61.768
0.143,-0.015,-0.726,-46.448,93.445,-56.519
0.117,0.025,-0.756,-34.180,100.464,-53.467
0.079,0.065,-0.774,-21.179,106.567,-53.650
0.042,0.106,-0.792,-11.230,110.779,-57.068
0.015,0.129,-0.803,-5.371,112.732,-63.354
-0.011,0.125,-0.767,-8.423,114.136,-70.740
0.010,0.076,-0.925,-23.254,117.676,-79.285
0.017,0.034,-1.020,-24.780,114.929,-87.524
0.011,-0.007,-1.053,-28.381,109.314,-93.628
0.012,-0.085,-1.108,-30.823,105.591,-98.206
0.026,-0.149,-1.165,-23.132,103.210,-99.121
0.035,-0.163,-1.191,-7.141,100.525,-96.558
0.027,-0.124,-1.209,8.728,97.595,-92.529
0.006,-0.080,-1.224,20.264,93.811,-89.050
-0.018,-0.056,-1.244,27.466,89.355,-87.891
-0.036,-0.016,-1.246,32.837,83.862,-89.294
-0.082,-0.019,-1.148,28.381,81.604,-92.834
-0.127,-0.116,-1.158,18.494,86.670,-100.342
-0.153,-0.203,-1.158,25.146,91.919,-110.779
-0.130,-0.185,-1.229,31.982,97.168,-114.929
-0.128,-0.200,-1.321,30.334,98.877,-114.075
-0.140,-0.263,-1.439,20.630,96.130,-109.924
-0.144,-0.319,-1.550,14.221,88.623,-102.966
-0.148,-0.351,-1.609,16.663,77.881,-95.825
-0.163,-0.352,-1.642,25.146,66.284,-89.905
-0.176,-0.353,-1.629,36.255,56.213,-85.388
-0.199,-0.387,-1.578,48.889,49.622,-82.336
-0.215,-0.396,-1.516,63.232,47.302,-81.543
-0.220,-0.398,-1.475,70.251,48.157,-81.421
-0.236,-0.405,-1.495,65.491,50.476,-81.970
-0.242,-0.432,-1.593,52.368,51.025,-82.214
-0.234,-0.489,-1.721,37.781,46.875,-81.482
-0.242,-0.554,-1.836,28.503,37.598,-79.285
-0.257,-0.601,-1.915,27.161,25.208,-74.646
-0.258,-0.623,-1.928,32.471,11.597,-67.261
-0.263,-0.629,-1.880,39.063,-0.732,-59.326
-0.281,-0.636,-1.819,45.715,-9.338,-52.185
-0.299,-0.616,-1.747,55.176,-16.541,-46.387
-0.316,-0.577,-1.695,60.730,-22.949,-43.823
-0.332,-0.564,-1.655,53.528,-27.222,-44.556
-0.343,-0.600,-1.709,36.926,-28.625,-46.936
-0.350,-0.665,-1.764,29.663,-31.250,-50.842
-0.346,-0.731,-1.791,32.166,-37.476,-54.077
-0.336,-0.782,-1.787,38.086,-45.959,-54.260
-0.331,-0.812,-1.717,43.152,-55.054,-50.720
-0.343,-0.802,-1.657,45.227,-63.110,-43.640
-0.360,-0.763,-1.599,42.725,-70.679,-35.889
-0.375,-0.730,-1.559,35.522,-78.247,-29.236
-0.382,-0.690,-1.553,29.541,-86.182,-24.963
-0.374,-0.650,-1.483,28.442,-95.093,-24.048
-0.369,-0.657,-1.406,25.024,-100.708,-26.550
-0.355,-0.682,-1.345,23.926,-101.929,-30.884
-0.326,-0.702,-1.285,27.466,-101.135,-35.156
-0.288,-0.720,-1.249,28.992,-99.792,-38.513
-0.252,-0.754,-1.218,25.879,-98.755,-39.978
-0.228,-0.794,-1.176,21.606,-98.572,-39.429
-0.206,-0.798,-1.198,17.761,-98.450,-36.560
-0.182,-0.798,-1.217,13.916,-99.854,-32.349
-0.161,-0.810,-1.207,8.850,-102.661,-27.283
-0.153,-0.814,-1.192,6.714,-105.957,-20.569
-0.155,-0.784,-1.160,9.644,-110.046,-13.428
-0.156,-0.733,-1.125,11.780,-114.807,-7.568
-0.151,-0.702,-1.052,11.719,-119.751,-3.479
-0.149,-0.682,-0.984,10.010,-122.681,0.305
-0.134,-0.636,-0.954,6.714,-122.131,4.028
-0.108,-0.584,-0.940,3.418,-118.835,7.263
-0.084,-0.559,-0.920,3.174,-114.380,9.583
-0.043,-0.549,-0.885,6.287,-108.765,11.536
-0.011,-0.539,-0.839,10.742,-102.295,13.733
0.001,-0.509,-0.815,12.573,-96.008,16.052
0.003,-0.479,-0.808,8.850,-90.698,18.433
0.001,-0.456,-0.828,0.000,-87.158,20.142
0.001,-0.451,-0.866,-10.864,-85.205,20.508
0.010,-0.483,-0.887,-20.386,-84.229,20.264
0.029,-0.519,-0.922,-27.405,-83.679,20.142
0.054,-0.552,-0.975,-33.813,-83.740,21.545
0.075,-0.588,-1.005,-39.063,-85.327,25.024
0.083,-0.594,-0.993,-40.222,-87.769,31.067
0.082,-0.566,-0.949,-36.499,-89.478,38.696
0.072,-0.516,-0.916,-32.288,-89.600,46.753
0.062,-0.459,-0.878,-30.396,-88.745,54.077
0.058,-0.415,-0.830,-30.212,-87.280,59.265
0.062,-0.376,-0.787,-29.907,-84.717,61.829
0.068,-0.330,-0.766,-30.884,-81.604,62.256
0.078,-0.299,-0.747,-34.119,-78.857,60.791
0.095,-0.304,-0.717,-38.818,-77.271,58.105
0.115,-0.332,-0.694,-45.349,-75.439,55.481
0.134,-0.365,-0.673,-50.903,-72.937,54.138
0.157,-0.384,-0.663,-53.894,-69.946,54.321
0.181,-0.389,-0.663,-56.641,-66.772,56.152
0.188,-0.398,-0.634,-61.401,-63.660,60.120
0.186,-0.397,-0.641,-65.430,-59.143,65.491
0.185,-0.365,-0.641,-63.293,-55.481,70.801
0.178,-0.334,-0.636,-59.814,-52.551,75.500
0.173,-0.313,-0.601,-56.641,-50.476,78.674
0.171,-0.286,-0.557,-53.040,-47.729,80.444
0.166,-0.260,-0.531,-50.720,-43.884,81.177
0.161,-0.225,-0.532,-49.866,-38.818,81.909
0.156,-0.191,-0.546,-48.645,-33.691,82.214
0.154,-0.168,-0.545,-44.189,-28.076,81.726
0.147,-0.145,-0.530,-36.194,-21.484,80.261
0.156,-0.109,-0.505,-27.588,-14.099,77.148
0.167,-0.087,-0.488,-21.301,-7.019,73.059
0.178,-0.065,-0.492,-18.494,-0.122,69.214
0.185,-0.061,-0.491,-18.982,5.981,66.406
0.196,-0.042,-0.506,-20.935,10.498,65.002
0.209,-0.021,-0.549,-26.245,13.245,64.880
0.223,-0.001,-0.602,-35.034,13.550,65.613
0.239,0.001,-0.638,-43.579,11.902,67.139

0.591,-0.500,-0.729,-7.141,-6.226,29.541
0.563,-0.471,-0.660,-5.554,-5.981,34.241
0.528,-0.399,-0.658,-7.812,-5.188,33.264
0.495,-0.416,-0.728,-16.296,-5.371,29.785
0.492,-0.437,-0.744,-28.076,-10.254,28.015
0.462,-0.416,-0.686,-35.889,-15.808,27.405
0.423,-0.369,-0.625,-41.565,-17.212,26.855
0.417,-0.353,-0.591,-48.218,-15.686,24.170
0.427,-0.361,-0.591,-54.138,-13.062,20.142
0.437,-0.363,-0.581,-57.373,-10.620,17.700
0.430,-0.339,-0.549,-56.091,-8.057,16.663
0.409,-0.293,-0.500,-50.842,-4.028,15.625
0.373,-0.244,-0.443,-42.358,2.197,12.695
0.320,-0.221,-0.365,-31.677,11.353,7.751
0.269,-0.181,-0.295,-20.203,23.804,1.770
0.241,-0.141,-0.280,-10.193,38.757,-4.272
0.233,-0.117,-0.280,-1.465,53.284,-11.780
0.183,-0.076,-0.339,4.150,66.528,-19.775
0.179,-0.059,-0.391,6.775,75.745,-26.489
0.187,-0.021,-0.446,0.122,78.308,-30.884
0.169,0.003,-0.477,-13.977,75.562,-33.386
0.154,0.040,-0.500,-30.151,69.641,-34.302
0.137,0.065,-0.505,-47.974,62.378,-35.645
0.115,0.072,-0.509,-65.063,55.664,-38.696
0.093,0.088,-0.503,-78.064,50.537,-42.908
0.081,0.109,-0.506,-86.670,47.913,-48.340
0.083,0.126,-0.509,-93.018,48.523,-54.504
0.086,0.125,-0.514,-96.375,51.819,-61.768
0.072,0.101,-0.519,-96.008,57.922,-69.580
0.062,0.060,-0.547,-90.576,66.345,-76.538
0.078,0.074,-0.594,-83.313,75.134,-82.458
0.058,0.063,-0.658,-75.623,82.581,-88.013
0.032,0.021,-0.710,-67.017,86.975,-93.750
0.016,-0.010,-0.732,-58.044,88.013,-98.999
0.004,-0.043,-0.727,-46.204,88.867,-103.638
-0.006,-0.059,-0.766,-33.936,91.736,-108.093
-0.004,-0.046,-0.795,-27.100,95.398,-111.450
-0.036,-0.114,-0.891,-28.687,98.755,-113.953
-0.040,-0.152,-0.965,-23.499,98.999,-115.723
-0.063,-0.147,-0.951,-16.052,94.971,-116.516
-0.089,-0.171,-0.964,-18.066,92.529,-118.713
-0.090,-0.204,-1.039,-20.935,91.675,-121.826
-0.082,-0.239,-1.120,-19.592,89.050,-123.962
-0.074,-0.288,-1.176,-15.930,83.679,-124.451
-0.060,-0.343,-1.217,-10.986,77.209,-123.779
-0.053,-0.402,-1.235,-6.287,70.374,-122.314
-0.053,-0.446,-1.243,-0.793,64.636,-120.117
-0.048,-0.419,-1.186,4.395,60.425,-117.126
-0.087,-0.450,-1.176,-2.686,61.035,-114.807
-0.134,-0.482,-1.242,-10.559,65.552,-115.601
-0.134,-0.474,-1.308,-8.789,66.162,-118.530
-0.127,-0.455,-1.381,-4.700,62.561,-118.347
-0.144,-0.477,-1.425,-1.892,53.589,-116.272
-0.172,-0.523,-1.462,-2.563,43.091,-112.732
-0.199,-0.570,-1.495,-1.831,33.630,-108.093
-0.221,-0.596,-1.527,1.953,26.733,-103.027
-0.250,-0.604,-1.543,8.484,22.034,-99.670
-0.271,-0.620,-1.560,16.479,18.127,-98.145
-0.277,-0.636,-1.557,23.560,12.939,-98.633
-0.272,-0.650,-1.541,27.466,6.409,-100.098
-0.259,-0.701,-1.518,27.466,0.061,-101.379
-0.234,-0.759,-1.526,25.879,-5.493,-101.929
-0.214,-0.813,-1.547,22.095,-11.169,-100.586
-0.199,-0.886,-1.570,18.555,-18.494,-97.229
-0.180,-0.963,-1.583,18.616,-26.428,-92.407
-0.159,-1.027,-1.575,22.949,-34.058,-86.060
-0.149,-1.075,-1.535,30.701,-40.710,-79.163
-0.145,-1.095,-1.497,39.795,-45.166,-72.205
-0.152,-1.085,-1.473,46.936,-47.180,-65.186
-0.170,-1.068,-1.457,51.697,-48.035,-58.350
-0.189,-1.051,-1.445,54.260,-48.645,-52.612
-0.210,-1.022,-1.445,58.655,-48.645,-47.668
-0.230,-0.990,-1.447,65.613,-48.157,-43.579
-0.239,-0.977,-1.407,72.205,-47.241,-40.466
-0.253,-0.972,-1.391,77.881,-44.983,-36.987
-0.273,-0.942,-1.362,90.027,-43.091,-34.851
-0.284,-0.880,-1.337,100.891,-42.603,-33.630
-0.296,-0.833,-1.303,104.797,-43.579,-33.142
-0.315,-0.810,-1.274,100.281,-45.471,-32.898
-0.329,-0.797,-1.257,91.980,-48.218,-32.532
-0.338,-0.765,-1.259,84.412,-52.307,-32.227
-0.341,-0.741,-1.253,76.904,-58.167,-31.555
-0.337,-0.729,-1.235,69.763,-64.636,-30.212
-0.337,-0.727,-1.231,63.293,-71.472,-28.625
-0.328,-0.738,-1.199,60.425,-78.857,-27.161
-0.299,-0.738,-1.125,59.204,-84.412,-25.391
-0.278,-0.723,-1.104,54.993,-84.167,-22.827
-0.266,-0.712,-1.121,53.406,-80.383,-20.691
-0.247,-0.714,-1.145,54.199,-77.393,-18.738
-0.227,-0.732,-1.146,58.289,-76.843,-16.663
-0.218,-0.742,-1.128,65.613,-77.881,-14.587
-0.216,-0.729,-1.123,71.411,-78.735,-11.963
-0.207,-0.712,-1.095,74.585,-79.712,-9.399
-0.192,-0.711,-1.043,74.646,-80.566,-7.324
-0.173,-0.696,-1.027,73.425,-80.017,-5.127
-0.151,-0.661,-1.062,70.435,-78.735,-2.319
-0.141,-0.658,-1.100,67.871,-77.820,1.465
-0.134,-0.672,-1.109,68.787,-77.515,6.226
-0.131,-0.651,-1.105,72.021,-78.064,11.658
-0.122,-0.619,-1.080,75.928,-79.041,17.395
-0.118,-0.605,-1.047,77.271,-80.444,22.400
-0.115,-0.574,-1.030,75.073,-81.482,26.978
-0.105,-0.533,-1.026,70.007,-81.909,30.762
-0.091,-0.502,-1.037,63.721,-82.642,34.424
-0.083,-0.500,-1.018,59.143,-83.984,37.354
-0.078,-0.465,-1.000,58.044,-85.144,40.649
-0.071,-0.402,-0.971,58.472,-85.999,44.128
-0.069,-0.356,-0.933,58.228,-86.060,46.143
-0.058,-0.333,-0.909,55.786,-85.266,45.959
-0.034,-0.328,-0.885,54.443,-83.008,44.800
-0.011,-0.326,-0.877,56.091,-79.102,44.067
0.007,-0.306,-0.866,60.120,-74.951,44.800
0.022,-0.269,-0.845,64.392,-71.533,47.363
0.036,-0.216,-0.824,66.162,-69.641,50.659
