aX,aY,aZ,gX,gY,gZ
0.292,0.211,-1.092,0.366,-7.874,13.000
0.331,0.325,-0.874,1.892,-13.367,14.038
0.299,0.270,-0.830,0.732,-14.893,14.038
0.300,0.203,-0.837,-5.249,-13.916,16.174
0.313,0.189,-0.841,-6.958,-13.489,20.203
0.323,0.167,-0.847,-6.226,-12.939,25.818
0.323,0.245,-0.796,-2.930,-11.475,32.776
0.299,0.301,-0.754,-0.122,-7.935,37.109
0.290,0.316,-0.809,0.488,-3.235,38.330
0.308,0.325,-0.920,0.854,-1.343,39.246
0.325,0.316,-0.990,5.493,-4.150,40.833
0.336,0.346,-1.019,9.399,-10.376,43.396
0.329,0.429,-1.039,7.507,-19.592,46.753
0.303,0.492,-0.962,0.183,-30.334,48.096
0.346,0.504,-0.921,-11.597,-38.269,46.814
0.382,0.488,-0.978,-27.344,-42.175,46.509
0.364,0.453,-1.014,-42.969,-46.326,47.729
0.444,0.464,-0.967,-56.152,-51.575,47.607
0.445,0.422,-1.104,-76.782,-55.908,47.974
0.413,0.256,-0.994,-116.516,-68.359,54.321
0.432,0.346,-0.853,-171.997,-77.393,67.688
0.625,0.337,-1.017,-219.116,-77.393,83.374
0.649,-0.210,-1.254,-260.010,-73.914,100.525
0.734,0.026,-1.469,-357.971,-78.491,134.827
0.622,-0.152,-1.615,-463.257,-88.196,173.279
0.354,-0.054,-1.690,-490.173,-86.304,205.627
0.343,-0.382,-1.468,-446.960,-58.960,208.740
0.389,-0.495,-1.531,-440.308,-25.879,191.223
0.646,-0.477,-2.227,-355.164,6.042,150.940
0.929,-0.820,-2.132,-230.164,20.264,102.966
0.892,-1.066,-1.780,-101.685,23.376,79.407
0.754,-1.064,-1.573,-24.597,30.151,65.552
0.630,-1.061,-1.471,-16.907,35.461,61.768
0.513,-1.160,-1.499,-44.922,37.415,74.890
0.384,-1.253,-1.650,-89.417,35.645,107.483
0.261,-1.359,-1.786,-128.052,30.518,152.222
0.198,-1.575,-1.756,-144.287,20.325,199.158
0.102,-1.658,-1.657,-135.193,3.967,240.662
0.125,-1.384,-1.255,-102.844,-18.311,270.264
-0.084,-1.663,-1.643,-43.518,-32.776,274.292
-0.413,-1.521,-1.515,52.612,-80.078,288.879
-0.715,-1.242,-1.227,148.193,-156.738,322.266
-0.824,-0.897,-0.949,201.965,-230.103,360.718
-0.951,-0.760,-0.675,209.900,-278.564,394.958
-0.986,-0.548,-0.489,203.979,-307.617,427.795
-0.961,-0.316,-0.245,203.064,-325.989,458.069
-1.000,0.184,-0.132,207.886,-337.341,477.661
-1.000,0.603,0.030,224.365,-345.215,476.135
-0.862,0.795,0.238,240.967,-350.281,450.623
-0.711,0.944,0.409,245.361,-349.670,413.940
-0.603,1.309,0.609,236.145,-335.754,386.536
-0.460,1.609,0.812,208.130,-299.072,374.878
-0.392,1.674,0.850,152.039,-235.779,377.258
-0.556,1.622,0.497,91.675,-155.396,385.376
-0.525,1.566,0.444,65.979,-93.872,375.427
-0.639,1.404,0.416,68.481,-48.706,349.060
-0.730,1.382,0.301,81.848,-5.127,324.402
-0.811,1.431,0.056,95.154,25.269,303.223
-0.878,1.541,-0.030,103.027,39.734,284.790
-0.975,1.513,-0.056,101.990,40.649,267.273
-1.017,1.532,0.003,92.957,38.086,251.709
-1.182,1.632,0.031,82.642,33.447,235.657
-1.218,1.776,0.073,66.223,19.165,213.013
-1.281,1.808,0.100,46.875,5.371,190.552
-1.385,1.957,0.290,26.733,-3.296,176.392
-1.587,2.142,0.351,4.883,2.563,169.556
-1.791,2.409,0.282,-19.165,13.977,158.691
-1.926,2.671,0.171,-51.392,14.404,138.916
-2.086,2.944,0.053,-86.792,1.770,113.647
-2.259,3.221,-0.045,-116.760,-18.250,84.595
-2.496,3.470,-0.115,-145.630,-41.626,46.082
-2.718,3.643,-0.201,-174.194,-69.519,-4.517
-2.971,3.739,-0.196,-196.411,-106.384,-69.702
-3.219,3.841,-0.167,-212.830,-153.931,-148.437
-3.449,3.781,-0.063,-227.295,-201.843,-238.403
-3.666,3.461,0.061,-236.816,-233.337,-334.900
-3.897,3.117,0.148,-239.075,-250.793,-433.289
-4.000,2.826,0.183,-241.455,-269.653,-536.804
-4.000,2.291,0.264,-255.859,-305.908,-643.005
-4.000,1.487,0.563,-270.691,-359.192,-736.450
-4.000,0.651,1.265,-282.349,-419.006,-805.359
-4.000,-0.273,2.115,-313.477,-478.882,-851.501
-4.000,-1.523,3.021,-367.065,-534.790,-880.493
-4.000,-3.412,3.988,-415.894,-571.838,-895.447
-4.000,-4.000,4.000,-392.090,-562.622,-902.527
-3.908,-4.000,4.000,-285.828,-499.817,-862.915
-3.010,-4.000,4.000,-168.884,-408.936,-772.034
-2.486,-4.000,4.000,-64.819,-322.449,-668.396
-2.042,-4.000,4.000,-34.546,-256.592,-590.759
-1.032,-4.000,4.000,-100.525,-221.558,-536.316
0.431,-4.000,3.901,-207.886,-211.365,-464.600
1.483,-4.000,3.399,-283.386,-179.565,-343.201
1.594,-4.000,2.373,-294.373,-96.680,-196.960
1.026,-3.488,0.920,-265.991,15.442,-74.707
0.513,-2.966,-0.574,-229.553,103.577,-2.502
0.217,-2.675,-1.509,-174.927,124.634,36.804
0.124,-2.257,-1.597,-94.238,79.590,63.110
0.160,-1.679,-0.886,-7.446,5.249,74.341
0.252,-1.097,0.029,64.026,-51.086,66.101
0.384,-0.678,0.743,113.281,-65.491,41.931
0.502,-0.440,1.096,140.808,-44.617,12.512
0.588,-0.325,1.147,149.109,-12.085,-11.719
0.665,-0.315,1.005,138.062,13.489,-26.489
0.708,-0.376,0.808,109.314,26.855,-27.100
0.699,-0.463,0.581,71.106,29.419,-14.709
0.636,-0.564,0.355,31.128,24.780,2.747
0.590,-0.661,0.163,-4.761,13.916,19.348
0.588,-0.714,0.063,-30.151,-1.648,31.189
0.556,-0.717,0.084,-39.612,-17.212,37.903
0.520,-0.693,0.124,-40.771,-27.710,39.490
0.543,-0.666,0.155,-37.476,-32.227,34.973
0.605,-0.648,0.221,-28.381,-34.607,24.048
0.675,-0.677,0.318,-13.916,-35.767,9.033
0.724,-0.744,0.383,1.343,-32.837,-5.188
0.778,-0.814,0.404,12.329,-25.696,-15.503
0.830,-0.868,0.385,19.714,-17.090,-20.752
0.841,-0.888,0.380,25.452,-9.644,-19.348
0.797,-0.853,0.380,28.564,-3.845,-12.878
0.756,-0.804,0.372,24.780,0.488,-4.456
0.709,-0.787,0.328,15.015,2.930,2.991
0.685,-0.781,0.286,2.075,2.563,9.033
0.673,-0.784,0.248,-10.559,0.427,13.245
0.669,-0.782,0.208,-19.287,-1.343,15.808
0.666,-0.771,0.195,-25.146,-2.319,17.151
0.654,-0.773,0.174,-26.306,-2.930,17.456
0.642,-0.783,0.170,-26.978,-3.357,18.066
0.654,-0.804,0.169,-28.137,-4.028,18.555
0.678,-0.813,0.182,-26.489,-4.944,19.226
0.689,-0.793,0.198,-22.461,-5.188,20.203
0.686,-0.784,0.207,-19.043,-4.578,20.630
0.688,-0.765,0.205,-16.541,-3.540,21.301
0.689,-0.730,0.223,-13.672,-3.174,21.851
0.683,-0.697,0.242,-11.536,-2.441,21.423
0.677,-0.678,0.239,-10.376,-0.183,20.935
0.674,-0.675,0.213,-9.338,2.563,20.386
0.665,-0.667,0.193,-7.141,4.761,20.203
0.649,-0.638,0.201,-3.296,6.226,19.226
0.649,-0.616,0.189,2.563,8.240,16.846
0.647,-0.606,0.154,7.324,11.536,13.184
0.638,-0.612,0.117,10.742,13.977,9.644
0.633,-0.618,0.083,13.306,14.465,5.920
0.643,-0.639,0.070,14.038,12.451,3.357
0.658,-0.662,0.075,14.771,9.033,2.136
0.677,-0.671,0.094,16.174,5.554,2.625
0.696,-0.679,0.126,15.503,2.625,3.906
0.712,-0.696,0.151,13.855,1.099,6.531
0.727,-0.696,0.157,11.658,0.854,10.559
0.743,-0.697,0.173,8.301,0.854,15.442
0.737,-0.692,0.182,5.737,1.099,19.897

0.804,-0.112,0.747,83.618,-55.359,49.438
0.764,0.026,0.740,93.018,-48.584,62.866
0.722,0.097,0.747,91.431,-45.410,70.496
0.705,0.147,0.723,86.121,-43.823,70.618
0.679,0.164,0.616,77.026,-44.678,67.383
0.656,0.192,0.537,68.359,-50.781,61.218
0.636,0.218,0.717,62.866,-60.669,51.453
0.668,0.189,0.827,49.255,-66.101,39.612
0.670,0.098,0.782,27.710,-67.017,31.921
0.672,0.060,0.747,15.198,-66.345,29.907
0.684,0.054,0.782,14.160,-63.477,30.701
0.681,0.069,0.848,15.015,-57.617,32.837
0.677,0.112,0.880,12.878,-49.561,34.851
0.682,0.163,0.864,9.155,-39.551,34.912
0.678,0.223,0.839,6.958,-28.687,32.471
0.679,0.271,0.812,7.751,-18.921,27.405
0.677,0.284,0.732,10.925,-10.620,19.531
0.589,0.084,0.415,13.184,-6.287,12.634
0.566,-0.119,0.191,26.245,-18.066,13.367
0.580,0.040,0.170,41.199,-49.194,23.987
0.593,0.129,0.330,54.871,-87.585,33.752
0.515,0.257,0.584,62.927,-120.728,35.889
0.420,0.319,0.732,61.707,-143.311,31.555
0.350,0.280,0.828,57.739,-157.593,20.081
0.300,0.183,0.899,63.416,-168.823,7.080
0.164,0.065,1.025,73.547,-179.993,-2.563
0.104,0.036,1.357,82.397,-189.453,-3.784
0.044,0.009,1.848,95.154,-187.561,-0.610
0.007,0.038,2.396,106.873,-164.307,3.418
-0.100,-0.090,2.646,113.220,-115.784,4.822
-0.171,-0.247,2.686,125.000,-55.969,9.949
-0.238,-0.302,2.777,151.306,-3.174,21.484
-0.326,-0.310,2.940,177.429,41.138,33.691
-0.413,-0.345,3.063,190.002,83.740,41.077
-0.483,-0.415,3.110,189.758,125.977,43.945
-0.549,-0.518,3.121,182.190,165.161,42.664
-0.607,-0.694,3.114,168.457,197.510,39.246
-0.579,-0.876,3.147,147.644,222.473,35.034
-0.526,-1.116,3.219,119.690,241.455,31.494
-0.549,-1.383,3.378,86.609,260.620,34.912
-0.585,-1.641,3.520,51.025,289.124,48.523
-0.680,-1.816,3.609,20.508,332.031,67.932
-0.835,-1.883,3.488,0.854,393.372,89.233
-1.058,-1.918,3.095,-12.756,470.032,113.770
-1.255,-1.897,2.526,-21.057,545.471,143.433
-1.437,-1.807,1.999,-20.630,607.117,173.279
-1.620,-1.707,1.491,-17.456,652.344,200.867
-1.746,-1.688,0.894,-31.311,681.824,228.638
-1.914,-1.706,0.302,-66.101,688.110,260.620
-2.236,-1.844,-0.276,-119.507,668.335,306.946
-2.800,-2.070,-0.650,-192.444,633.484,372.253
-3.727,-2.190,-0.980,-266.479,603.394,451.965
-4.000,-2.059,-1.602,-339.966,592.651,525.208
-4.000,-1.502,-2.392,-421.509,592.224,561.401
-4.000,-0.862,-3.382,-529.480,577.820,535.156
-4.000,-0.646,-4.000,-695.740,526.367,437.744
-4.000,-0.870,-4.000,-859.741,407.593,279.297
-2.825,-1.074,-4.000,-883.789,237.244,109.558
-0.935,-0.992,-4.000,-683.472,105.225,-14.282
0.149,-0.732,-3.877,-359.192,104.614,-38.330
0.307,-0.139,-3.690,-68.542,220.459,33.020
0.037,0.745,-4.000,150.330,323.608,108.521
-0.244,1.768,-4.000,280.396,288.940,108.765
0.117,1.251,-2.824,259.644,121.155,44.128
0.117,0.613,-2.234,151.428,26.062,5.920
0.064,0.524,-1.679,84.167,-27.100,-2.991
-0.020,0.283,-1.420,27.405,-59.265,-24.170
0.097,0.028,-1.168,-16.541,-84.656,-47.607
0.287,-0.205,-0.816,-31.738,-102.600,-65.002
0.445,-0.397,-0.507,-30.151,-99.976,-65.857
0.494,-0.422,-0.372,-18.494,-77.148,-50.232
0.464,-0.352,-0.376,-3.601,-47.180,-30.457
0.410,-0.316,-0.420,6.165,-23.010,-16.724
0.406,-0.277,-0.500,7.507,-7.324,-10.193
0.434,-0.228,-0.661,-3.296,2.502,-7.690
0.471,-0.171,-0.853,-20.935,7.446,-5.859
0.484,-0.102,-1.037,-35.645,7.690,-2.747
0.466,-0.049,-1.175,-42.603,5.127,1.099
0.433,-0.018,-1.227,-40.344,0.916,3.052
0.425,-0.001,-1.210,-31.128,-2.808,2.441
0.429,0.001,-1.202,-17.883,-3.418,1.343
0.433,0.006,-1.164,-2.686,-2.563,0.671
0.415,0.028,-1.096,12.634,-1.282,0.122
0.377,0.052,-1.049,21.362,-0.366,-1.526
0.362,0.079,-0.995,25.146,-0.732,-4.211
0.364,0.067,-0.934,25.574,-1.892,-8.667
0.385,0.048,-0.906,21.545,-3.357,-12.329
0.400,0.025,-0.929,12.268,-5.127,-13.550
0.411,0.005,-0.954,2.502,-8.911,-14.221
0.414,-0.006,-0.971,-5.981,-14.160,-14.038
0.418,-0.024,-0.984,-12.451,-19.348,-13.611
0.412,-0.027,-0.973,-14.893,-23.621,-13.184
0.403,-0.023,-0.938,-14.587,-26.489,-12.939
0.398,-0.024,-0.907,-12.634,-27.222,-13.672
0.406,-0.043,-0.887,-10.315,-26.489,-15.015
0.423,-0.057,-0.883,-7.690,-24.414,-15.381
0.434,-0.078,-0.860,-2.991,-21.912,-15.503
0.443,-0.077,-0.816,2.930,-18.677,-15.198
0.456,-0.074,-0.807,6.470,-14.099,-14.282
0.461,-0.067,-0.819,8.667,-10.071,-13.245
0.454,-0.054,-0.812,9.766,-8.301,-12.817
0.458,-0.029,-0.794,9.827,-8.179,-12.512
0.468,-0.023,-0.811,7.263,-8.057,-13.672
0.490,-0.047,-0.850,3.418,-8.545,-14.954
0.510,-0.075,-0.867,1.770,-10.437,-15.076
0.533,-0.104,-0.874,1.038,-12.878,-13.550
0.550,-0.124,-0.879,-0.305,-14.587,-10.132
0.550,-0.128,-0.883,-0.793,-15.747,-5.554
0.530,-0.114,-0.882,-1.343,-16.724,-0.854
0.498,-0.081,-0.865,-2.502,-17.761,3.723
0.466,-0.034,-0.850,-3.174,-17.883,6.409
0.438,0.005,-0.851,-3.174,-16.663,5.798
0.420,0.025,-0.836,-0.854,-14.954,3.113
0.407,0.037,-0.813,4.150,-13.184,-1.526
0.413,0.043,-0.811,7.812,-10.803,-6.592
0.439,0.025,-0.838,9.399,-9.338,-12.512
0.473,-0.011,-0.849,10.620,-9.888,-17.578
0.501,-0.039,-0.830,11.169,-11.597,-20.569
0.522,-0.082,-0.842,9.521,-12.756,-20.752
0.543,-0.115,-0.871,5.554,-14.038,-18.555
0.549,-0.129,-0.885,2.136,-16.479,-14.709
0.541,-0.132,-0.877,0.183,-19.348,-10.010
0.531,-0.121,-0.852,-0.427,-21.240,-5.920
0.519,-0.113,-0.818,-0.732,-21.484,-3.296
0.503,-0.096,-0.788,-0.122,-20.203,-0.854
0.497,-0.076,-0.792,-1.404,-17.822,0.671
0.490,-0.057,-0.819,-3.845,-15.625,1.343
0.488,-0.031,-0.858,-6.470,-15.015,1.038
0.488,-0.011,-0.886,-8.423,-15.991,-1.038
0.489,-0.006,-0.896,-9.277,-17.822,-3.906
0.493,-0.027,-0.882,-8.057,-19.470,-6.348
0.510,-0.055,-0.851,-4.089,-19.775,-9.338
0.542,-0.083,-0.819,0.061,-18.555,-11.597
0.562,-0.116,-0.803,2.625,-16.418,-12.451
0.572,-0.145,-0.791,2.869,-14.709,-11.169
0.585,-0.151,-0.794,1.038,-13.428,-8.362
0.595,-0.154,-0.815,-1.404,-12.268,-5.493
0.588,-0.153,-0.836,-3.662,-11.719,-2.747
0.581,-0.128,-0.845,-5.798,-12.451,0.793
0.575,-0.096,-0.852,-7.812,-13.306,4.272
0.565,-0.074,-0.840,-8.484,-13.855,6.165
0.550,-0.064,-0.819,-5.310,-13.794,6.592
0.533,-0.061,-0.799,-2.136,-12.878,5.981
0.528,-0.059,-0.794,-0.793,-11.658,4.700
0.533,-0.071,-0.810,-0.610,-10.742,2.625
0.552,-0.087,-0.832,-0.671,-10.864,1.099
0.576,-0.097,-0.849,-0.488,-12.085,0.671
0.585,-0.100,-0.860,-0.793,-13.916,2.258
0.580,-0.093,-0.877,-2.014,-16.235,5.615

0.500,-0.105,-0.572,35.034,-78.491,-46.631
0.517,-0.049,-0.466,28.320,-62.134,-31.738
0.443,0.047,-0.543,19.714,-44.434,-21.301
0.345,0.139,-0.679,9.766,-30.945,-16.785
0.304,0.246,-0.754,9.155,-24.292,-22.583
0.277,0.252,-0.778,10.071,-21.667,-37.781
0.314,0.161,-0.758,5.249,-22.400,-54.260
0.380,0.080,-0.721,-2.563,-26.306,-66.223
0.423,0.005,-0.672,-10.559,-29.724,-71.289
0.444,-0.066,-0.661,-13.794,-28.931,-70.374
0.471,-0.119,-0.687,-10.315,-23.560,-66.101
0.500,-0.145,-0.719,-2.869,-16.846,-59.143
0.487,-0.171,-0.715,4.333,-10.742,-50.354
0.500,-0.177,-0.725,9.521,-8.606,-40.466
0.492,-0.138,-0.735,8.911,-7.629,-30.396
0.459,-0.098,-0.743,3.540,-8.362,-21.851
0.436,-0.065,-0.736,-3.174,-10.132,-16.418
0.420,-0.023,-0.729,-9.460,-12.085,-14.771
0.399,0.021,-0.739,-15.869,-13.245,-18.555
0.336,0.014,-0.758,-23.376,-13.977,-26.855
0.368,0.007,-0.779,-26.672,-13.733,-39.185
0.429,-0.052,-0.787,-24.292,-11.963,-55.725
0.488,-0.077,-0.789,-21.301,-9.399,-72.998
0.476,-0.111,-0.782,-16.296,-5.676,-88.440
0.471,-0.120,-0.726,-7.019,0.305,-100.830
0.484,-0.074,-0.704,3.784,9.888,-110.291
0.479,-0.063,-0.694,10.925,21.179,-119.385
0.471,-0.068,-0.730,14.587,31.799,-128.845
0.458,-0.070,-0.774,16.846,39.856,-138.245
0.449,-0.100,-0.820,17.944,44.495,-147.400
0.472,-0.144,-0.847,15.930,45.288,-156.799
0.497,-0.209,-0.860,10.498,42.114,-165.649
0.533,-0.316,-0.906,0.732,36.377,-172.852
0.591,-0.438,-0.976,-16.052,26.367,-176.880
0.620,-0.519,-1.027,-34.912,10.925,-176.514
0.631,-0.588,-1.088,-50.049,-6.470,-172.119
0.689,-0.614,-1.074,-61.340,-22.400,-166.077
0.697,-0.774,-1.177,-70.862,-29.907,-162.048
0.744,-0.849,-1.271,-65.735,-35.278,-152.344
0.808,-0.849,-1.270,-49.744,-43.457,-135.864
0.825,-0.880,-1.278,-32.959,-45.959,-119.385
0.831,-0.891,-1.299,-13.794,-44.189,-106.018
0.824,-0.852,-1.318,4.700,-41.260,-94.360
0.807,-0.770,-1.325,20.569,-38.757,-84.595
0.764,-0.696,-1.365,32.898,-37.109,-78.186
0.763,-0.633,-1.399,39.795,-37.842,-75.562
0.764,-0.604,-1.432,44.739,-42.053,-76.782
0.778,-0.561,-1.409,48.462,-48.828,-81.238
0.742,-0.535,-1.375,50.171,-56.580,-88.745
0.676,-0.543,-1.340,44.556,-64.575,-99.121
0.639,-0.592,-1.350,27.710,-74.951,-111.633
0.659,-0.684,-1.301,1.221,-90.088,-126.892
0.571,-0.945,-1.421,-28.931,-103.394,-142.761
0.756,-0.939,-1.330,-58.411,-127.563,-147.888
0.784,-1.126,-1.244,-85.510,-157.593,-154.236
0.879,-1.270,-1.052,-106.262,-178.162,-162.903
0.891,-1.425,-0.989,-115.723,-182.129,-166.443
1.014,-1.385,-0.907,-118.103,-179.443,-156.128
1.060,-1.380,-0.861,-123.047,-174.316,-140.808
1.015,-1.433,-0.860,-128.723,-165.588,-126.831
1.002,-1.421,-0.860,-134.644,-158.386,-109.131
0.998,-1.421,-0.823,-139.832,-156.982,-87.769
0.857,-1.485,-0.880,-143.005,-156.799,-67.688
0.881,-1.462,-0.839,-148.682,-168.335,-40.527
0.789,-1.497,-0.747,-145.813,-181.091,-22.461
0.778,-1.516,-0.611,-135.376,-189.331,-7.507
0.755,-1.539,-0.494,-120.178,-190.308,10.864
0.739,-1.497,-0.322,-102.234,-187.683,37.598
0.688,-1.461,-0.172,-84.412,-180.237,65.369
0.621,-1.428,-0.030,-69.641,-166.260,89.294
0.563,-1.344,0.147,-55.115,-150.513,109.253
0.531,-1.252,0.300,-41.992,-133.179,125.061
0.499,-1.176,0.429,-33.264,-114.319,138.550
0.451,-1.113,0.554,-24.170,-94.238,152.344
0.357,-1.041,0.669,-15.076,-73.242,169.128
0.257,-0.967,0.737,-11.047,-51.392,187.683
0.165,-0.898,0.800,-8.850,-29.358,203.552
0.066,-0.844,0.844,-0.977,-7.263,213.684
-0.026,-0.808,0.910,16.663,13.794,218.933
-0.109,-0.811,1.013,42.236,35.156,220.032
-0.137,-0.833,1.124,71.472,57.678,218.750
-0.129,-0.884,1.230,99.670,82.275,215.210
-0.141,-0.972,1.306,117.981,108.215,212.891
-0.141,-1.079,1.307,118.591,134.766,218.018
-0.173,-1.137,1.299,94.299,160.461,237.610
-0.318,-1.213,1.181,41.626,185.608,274.597
-0.619,-1.243,0.979,-29.541,211.060,330.811
-1.067,-1.315,0.773,-112.854,238.525,402.405
-1.760,-1.367,0.327,-204.407,271.912,484.314
-2.610,-1.158,-0.261,-281.616,308.960,561.157
-3.436,-0.514,-0.980,-340.881,344.421,606.140
-3.988,0.130,-1.910,-394.409,364.258,595.337
-3.994,0.695,-2.727,-443.909,352.905,523.437
-3.414,0.854,-3.302,-477.478,305.420,400.513
-2.363,0.779,-3.472,-474.365,234.558,260.376
-1.131,0.603,-3.147,-396.240,166.321,139.648
-0.090,0.536,-2.473,-247.192,138.367,70.190
0.629,0.667,-2.087,-104.126,172.424,68.359
0.522,1.099,-3.062,-16.602,230.713,102.661
0.606,1.120,-2.843,29.480,189.209,116.455
0.351,0.596,-2.707,8.728,108.398,120.422
0.112,0.260,-2.388,17.822,46.021,119.812
-0.012,0.128,-1.665,72.998,-11.841,93.689
-0.051,0.123,-0.918,110.291,-44.373,54.443
-0.007,0.042,-0.396,109.863,-48.279,13.184
0.126,-0.044,-0.179,88.318,-33.875,-21.118
0.282,-0.068,-0.193,57.861,-17.151,-43.091
0.423,-0.124,-0.321,19.226,-10.010,-52.917
0.522,-0.195,-0.514,-22.339,-14.465,-52.551
0.575,-0.246,-0.665,-54.871,-27.588,-44.373
0.587,-0.282,-0.771,-73.853,-41.382,-34.790
0.577,-0.320,-0.859,-80.322,-49.805,-26.367
0.585,-0.316,-0.922,-75.195,-52.002,-18.066
0.608,-0.299,-0.932,-60.974,-47.607,-12.390
0.624,-0.266,-0.882,-40.894,-38.757,-8.850
0.622,-0.199,-0.832,-18.494,-25.391,-6.592
0.601,-0.135,-0.811,-1.587,-10.376,-4.944
0.573,-0.088,-0.821,8.484,1.892,-2.747
0.547,-0.043,-0.821,15.381,8.728,-0.427
0.536,0.007,-0.795,19.470,10.010,-0.671
0.539,0.007,-0.774,18.555,8.118,-3.296
0.553,-0.023,-0.759,14.160,4.578,-6.042
0.579,-0.084,-0.762,7.202,0.916,-7.324
0.610,-0.130,-0.775,-0.854,-2.075,-6.226
0.630,-0.160,-0.802,-9.705,-4.150,-2.747
0.632,-0.175,-0.820,-15.869,-5.554,3.784
0.625,-0.145,-0.821,-16.663,-6.897,12.024
0.583,-0.137,-0.806,-12.512,-6.958,17.883
0.560,-0.094,-0.794,-6.958,-4.761,21.851
0.535,-0.043,-0.785,-1.404,-1.892,23.193
0.511,-0.000,-0.783,2.869,0.366,21.484
0.490,0.033,-0.777,5.554,1.770,17.700
0.471,0.068,-0.758,6.714,1.526,13.489
0.471,0.098,-0.732,5.310,1.099,7.935
0.495,0.085,-0.702,3.479,1.892,-0.366
0.517,0.020,-0.703,2.075,5.127,-7.629
0.538,0.066,-0.793,2.502,4.578,-9.888
0.559,0.015,-0.727,2.441,-4.517,-11.169
0.550,-0.040,-0.726,-1.465,-5.493,-14.160
0.593,-0.061,-0.735,-2.930,-4.272,-13.611
0.607,-0.080,-0.749,-2.686,-2.686,-11.353
0.620,-0.083,-0.767,-1.038,-0.549,-8.545
0.623,-0.089,-0.758,2.075,1.404,-6.287
0.627,-0.075,-0.739,4.761,3.418,-4.211
0.630,-0.054,-0.740,3.967,5.737,-1.831
0.623,-0.044,-0.772,0.244,7.385,0.732
0.610,-0.034,-0.806,-3.357,7.202,3.357
0.597,-0.006,-0.818,-4.395,5.310,5.066
0.583,0.014,-0.822,-5.005,3.540,5.188

1.026,-0.021,0.298,-19.287,-8.911,33.325
1.042,-0.024,0.323,-21.179,-11.108,35.217
1.013,0.008,0.306,-24.963,-11.780,37.537
1.012,-0.031,0.259,-29.846,-11.169,40.039
1.012,-0.026,0.238,-30.029,-12.451,43.518
1.011,0.001,0.251,-28.564,-14.648,46.875
1.001,0.033,0.265,-25.757,-15.015,49.561
0.979,0.015,0.231,-22.766,-14.709,50.903
0.985,0.006,0.184,-22.034,-18.005,52.551
0.969,0.050,0.198,-21.729,-25.879,55.481
0.937,0.112,0.252,-24.292,-34.851,57.007
0.898,0.165,0.315,-28.809,-42.725,55.115
0.899,0.159,0.379,-34.241,-48.950,50.171
0.847,0.135,0.323,-44.922,-55.908,44.617
0.891,0.116,0.298,-48.096,-53.101,42.358
0.890,0.101,0.286,-54.199,-56.335,42.664
0.870,0.101,0.302,-60.608,-59.387,43.091
0.850,0.123,0.332,-63.538,-60.242,44.495
0.821,0.144,0.349,-64.453,-58.594,44.922
0.803,0.151,0.373,-62.683,-53.833,43.030
0.791,0.184,0.379,-58.228,-46.997,39.001
0.762,0.228,0.401,-53.894,-39.246,33.386
0.759,0.180,0.417,-48.279,-30.457,25.818
0.771,0.240,0.402,-47.913,-21.118,17.822
0.756,0.230,0.375,-52.917,-13.367,10.010
0.761,0.196,0.315,-56.274,-9.583,4.089
0.770,0.185,0.270,-57.800,-11.536,1.831
0.783,0.193,0.271,-56.885,-17.578,1.831
0.790,0.199,0.305,-53.528,-23.682,2.869
0.790,0.198,0.354,-49.683,-26.672,4.272
0.803,0.208,0.403,-45.776,-25.146,5.127
0.824,0.237,0.462,-41.138,-20.081,5.249
0.839,0.270,0.513,-37.964,-13.550,4.700
0.848,0.315,0.536,-38.025,-7.690,2.808
0.857,0.328,0.515,-42.053,-4.333,-0.366
0.873,0.338,0.473,-51.025,-5.554,-4.395
0.894,0.352,0.461,-62.500,-11.230,-9.094
0.922,0.360,0.498,-72.937,-19.653,-15.808
0.958,0.334,0.523,-81.848,-27.344,-23.254
1.010,0.280,0.559,-87.585,-32.959,-29.419
1.054,0.254,0.613,-89.050,-35.400,-30.884
1.082,0.257,0.660,-87.524,-33.325,-27.344
1.093,0.284,0.693,-83.801,-27.100,-20.996
1.107,0.327,0.716,-78.552,-18.250,-13.916
1.111,0.384,0.755,-71.899,-9.399,-8.240
1.089,0.464,0.769,-67.200,-1.526,-3.845
1.059,0.529,0.721,-67.810,4.395,1.221
1.014,0.584,0.659,-70.435,6.226,6.165
0.948,0.636,0.617,-70.007,3.540,10.254
0.884,0.681,0.610,-66.833,-1.160,11.841
0.839,0.711,0.645,-63.721,-6.592,10.132
0.804,0.748,0.694,-63.660,-11.658,6.714
0.798,0.806,0.755,-69.519,-15.442,2.563
0.796,0.865,0.774,-80.688,-17.273,-3.479
0.805,0.863,0.715,-93.811,-16.846,-13.062
0.828,0.829,0.606,-100.281,-14.771,-24.597
0.844,0.789,0.509,-95.215,-12.573,-34.668
0.855,0.733,0.464,-79.773,-10.925,-42.236
0.864,0.682,0.496,-58.960,-9.155,-47.913
0.861,0.647,0.582,-40.894,-5.920,-51.514
0.850,0.626,0.640,-32.104,0.244,-52.917
0.832,0.617,0.645,-33.081,9.338,-52.490
0.802,0.624,0.617,-40.649,18.982,-51.514
0.761,0.641,0.532,-50.598,26.550,-52.063
0.732,0.642,0.424,-59.143,30.212,-56.396
0.725,0.645,0.361,-62.012,29.419,-65.308
0.737,0.621,0.342,-59.570,26.062,-76.843
0.774,0.562,0.346,-55.542,22.949,-88.806
0.812,0.483,0.341,-49.561,22.095,-98.389
0.828,0.408,0.347,-40.039,25.330,-103.455
0.793,0.397,0.372,-29.236,33.081,-104.675
0.721,0.414,0.350,-26.550,42.725,-105.774
0.662,0.424,0.285,-31.860,49.194,-109.558
0.609,0.431,0.227,-39.307,48.218,-117.859
0.560,0.446,0.209,-44.434,40.955,-129.639
0.527,0.471,0.205,-47.302,33.203,-143.921
0.498,0.480,0.215,-46.326,30.273,-161.560
0.446,0.438,0.249,-37.354,34.729,-181.763
0.380,0.341,0.267,-24.597,46.570,-204.285
0.333,0.202,0.232,-15.686,62.317,-226.685
0.317,0.057,0.139,-15.930,75.500,-246.155
0.323,-0.066,0.052,-22.583,79.346,-260.193
0.293,-0.179,0.008,-31.494,71.472,-268.921
0.210,-0.281,0.015,-39.551,56.030,-274.109
0.097,-0.357,0.016,-45.715,40.771,-280.273
-0.018,-0.475,0.002,-49.561,30.457,-289.246
-0.135,-0.624,-0.040,-49.072,25.818,-298.584
-0.228,-0.745,-0.056,-41.321,25.146,-306.030
-0.316,-0.860,-0.037,-26.306,28.198,-311.951
-0.328,-0.958,-0.012,-12.878,35.034,-315.857
-0.289,-1.105,0.000,-6.836,44.128,-317.139
-0.251,-1.290,-0.009,-6.775,51.697,-311.768
-0.203,-1.373,-0.004,-7.874,55.542,-294.800
-0.198,-1.376,0.013,-8.057,56.702,-269.836
-0.228,-1.341,0.060,-9.827,55.969,-245.361
-0.250,-1.267,0.127,-12.146,53.833,-227.112
-0.261,-1.233,0.192,-17.639,51.941,-219.238
-0.250,-1.254,0.266,-26.978,51.819,-221.130
-0.195,-1.263,0.313,-40.100,55.298,-228.394
-0.116,-1.293,0.237,-62.561,61.157,-237.366
0.013,-1.392,0.051,-90.271,62.683,-242.310
0.260,-1.585,-0.185,-114.807,55.603,-238.037
0.527,-1.756,-0.374,-129.761,39.490,-219.604
0.700,-1.857,-0.445,-129.272,15.869,-184.265
0.777,-1.855,-0.396,-114.014,-7.080,-135.742
0.758,-1.807,-0.280,-86.548,-20.081,-85.632
0.686,-1.734,-0.145,-51.270,-19.592,-43.457
0.604,-1.604,-0.021,-13.489,-8.667,-11.902
0.521,-1.449,0.075,19.592,7.812,10.193
0.441,-1.302,0.113,40.955,25.879,24.963
0.391,-1.183,0.096,47.241,38.147,33.020
0.359,-1.105,0.047,42.297,39.917,35.645
0.356,-1.035,0.017,32.288,30.823,35.828
0.369,-0.972,0.014,20.630,15.259,34.973
0.375,-0.931,0.042,8.911,-1.526,33.875
0.382,-0.908,0.088,-0.793,-15.320,33.203
0.391,-0.910,0.150,-7.019,-24.902,32.837
0.380,-0.912,0.242,-7.385,-28.809,32.410
0.365,-0.900,0.309,-4.761,-27.161,30.701
0.370,-0.886,0.329,-1.892,-20.508,26.001
0.393,-0.890,0.311,2.258,-11.658,19.104
0.421,-0.914,0.282,7.996,-4.395,11.719
0.449,-0.929,0.263,14.343,0.183,6.714
0.467,-0.930,0.254,18.555,3.113,4.944
0.468,-0.933,0.241,17.822,4.639,5.127
0.465,-0.930,0.231,13.123,3.418,6.531
0.456,-0.927,0.229,7.629,0.854,7.446
0.444,-0.932,0.231,3.113,-1.892,7.324
0.443,-0.925,0.233,-0.427,-3.296,6.165
0.441,-0.928,0.234,-2.136,-2.197,4.700
0.448,-0.931,0.213,-3.723,0.488,2.747
0.461,-0.925,0.179,-4.028,3.967,1.099
0.462,-0.934,0.136,-3.113,6.714,0.244
0.464,-0.943,0.104,-1.404,7.874,0.732
0.463,-0.942,0.079,1.221,7.263,2.136
0.464,-0.935,0.074,3.723,5.249,4.089
0.477,-0.919,0.107,6.409,2.991,5.249
0.473,-0.913,0.142,8.606,1.831,5.676
0.470,-0.912,0.153,8.667,1.648,5.859
0.465,-0.919,0.151,8.179,1.099,6.226
0.460,-0.912,0.148,8.911,0.366,6.958
0.459,-0.893,0.163,10.071,-0.061,7.874
0.456,-0.881,0.196,10.376,0.427,7.935
0.453,-0.871,0.207,9.705,2.258,7.568
0.448,-0.859,0.194,7.935,4.700,7.324
0.448,-0.841,0.159,5.249,6.775,7.263
0.446,-0.839,0.124,3.662,7.141,7.202
0.453,-0.836,0.109,3.418,6.042,7.141
0.458,-0.840,0.118,4.028,4.150,6.531

1.231,-0.099,-0.328,-23.010,-16.968,-4.761
1.289,-0.209,-0.145,-18.860,-25.940,-0.610
1.263,-0.197,-0.102,-10.437,-29.846,7.263
1.223,-0.162,-0.121,-2.747,-27.222,15.381
1.168,-0.076,-0.141,6.714,-25.757,20.630
1.134,-0.000,-0.152,14.282,-27.283,20.447
1.135,0.031,-0.155,19.104,-30.945,15.564
1.171,0.022,-0.130,23.743,-36.011,8.728
1.194,0.027,-0.080,29.114,-40.588,2.136
1.233,0.031,-0.036,33.020,-43.945,-3.601
1.275,0.028,0.009,34.851,-46.753,-9.888
1.312,0.004,0.062,34.485,-49.133,-17.151
1.333,-0.039,0.109,31.799,-50.903,-24.048
1.333,-0.110,0.133,26.733,-53.101,-30.518
1.317,-0.175,0.164,22.339,-55.908,-35.034
1.285,-0.241,0.234,22.522,-58.838,-37.720
1.255,-0.228,0.286,25.391,-60.608,-39.063
1.196,-0.293,0.310,33.081,-52.002,-40.771
1.177,-0.279,0.282,40.222,-42.847,-42.908
1.103,-0.334,0.262,39.368,-37.354,-47.424
1.076,-0.365,0.249,37.109,-36.072,-52.185
1.112,-0.409,0.252,35.767,-36.804,-56.458
1.133,-0.462,0.300,35.889,-37.537,-60.913
1.152,-0.495,0.326,34.668,-36.255,-62.805
1.176,-0.523,0.317,29.785,-33.691,-60.669
1.193,-0.552,0.301,24.536,-31.860,-55.481
1.190,-0.564,0.286,21.362,-30.884,-47.607
1.170,-0.568,0.275,19.287,-31.006,-38.208
1.148,-0.569,0.259,19.226,-30.945,-28.503
1.128,-0.587,0.256,21.973,-30.273,-18.921
1.104,-0.593,0.280,29.358,-28.381,-8.911
1.072,-0.578,0.307,38.269,-24.353,1.770
1.029,-0.563,0.326,44.556,-18.433,13.062
0.989,-0.537,0.347,49.133,-11.597,22.034
0.968,-0.526,0.375,53.223,-5.188,27.954
0.972,-0.496,0.403,51.819,-0.061,31.555
0.997,-0.510,0.408,39.246,1.160,32.776
1.029,-0.529,0.386,22.583,-1.587,33.325
1.059,-0.558,0.388,7.507,-4.944,36.011
1.076,-0.578,0.396,-4.089,-5.432,41.077
1.059,-0.580,0.386,-12.024,-2.197,48.767
1.021,-0.565,0.361,-16.724,4.028,58.838
0.974,-0.516,0.318,-16.968,12.390,69.458
0.925,-0.457,0.272,-12.329,22.278,78.735
0.883,-0.390,0.237,-3.296,32.349,85.938
0.836,-0.324,0.211,6.348,41.687,91.797
0.798,-0.258,0.193,13.184,48.279,96.802
0.773,-0.201,0.196,17.761,52.002,100.159
0.740,-0.151,0.213,18.188,53.650,101.563
0.726,-0.112,0.223,13.306,54.443,101.929
0.718,-0.113,0.219,3.906,55.054,101.990
0.683,-0.089,0.235,-6.287,55.786,103.149
0.655,-0.095,0.181,-21.851,58.350,104.370
0.614,-0.059,0.116,-42.786,60.059,108.337
0.581,-0.046,0.065,-58.472,59.937,113.892
0.554,-0.024,0.000,-70.374,59.570,119.507
0.515,0.008,-0.054,-77.637,59.631,122.803
0.480,0.053,-0.095,-79.590,59.814,124.939
0.459,0.106,-0.098,-77.393,60.547,126.038
0.443,0.161,-0.092,-75.989,62.805,125.732
0.446,0.194,-0.119,-80.139,66.711,123.901
0.460,0.220,-0.205,-86.426,70.679,121.460
0.466,0.255,-0.344,-92.102,72.754,119.751
0.497,0.300,-0.455,-92.957,71.045,119.751
0.511,0.352,-0.504,-85.632,65.857,119.690
0.520,0.393,-0.510,-74.646,59.326,118.164
0.537,0.425,-0.483,-65.002,53.284,116.821
0.544,0.450,-0.447,-59.509,48.828,115.662
0.544,0.469,-0.436,-61.035,45.227,113.831
0.549,0.489,-0.448,-67.017,42.114,110.229
0.554,0.456,-0.444,-69.458,38.391,103.821
0.529,0.474,-0.388,-68.848,35.156,97.168
0.525,0.414,-0.420,-61.035,35.156,91.858
0.531,0.313,-0.441,-58.960,37.292,88.501
0.566,0.314,-0.436,-55.664,35.400,93.079
0.560,0.298,-0.429,-47.363,32.837,100.281
0.548,0.301,-0.432,-44.006,30.945,107.544
0.522,0.282,-0.422,-43.030,29.724,113.586
0.494,0.256,-0.394,-41.260,28.259,118.713
0.468,0.225,-0.381,-38.635,27.283,124.268
0.440,0.203,-0.367,-36.621,26.550,131.714
0.421,0.215,-0.343,-34.546,26.367,140.686
0.403,0.252,-0.320,-33.325,26.917,149.658
0.389,0.294,-0.276,-34.241,28.870,158.447
0.370,0.328,-0.240,-34.973,32.654,165.955
0.338,0.356,-0.223,-36.926,38.147,171.936
0.313,0.384,-0.235,-40.955,44.983,177.307
0.286,0.427,-0.283,-46.143,51.636,182.678
0.267,0.458,-0.336,-52.002,55.908,187.622
0.259,0.490,-0.389,-56.641,57.617,192.139
0.242,0.526,-0.435,-58.289,57.739,197.632
0.213,0.582,-0.484,-55.420,57.800,202.881
0.151,0.675,-0.592,-46.692,56.213,206.787
0.152,0.815,-0.565,-32.837,49.438,205.994
0.107,0.804,-0.577,-24.475,44.434,202.393
0.065,0.868,-0.574,-7.324,39.551,199.158
0.033,0.941,-0.487,12.085,34.485,189.880
0.009,0.979,-0.373,23.682,32.349,175.598
-0.000,1.016,-0.309,25.879,33.752,159.302
0.012,0.998,-0.282,19.592,36.682,142.151
0.049,0.954,-0.273,10.681,38.330,125.549
0.065,0.929,-0.290,0.488,38.391,112.061
0.086,0.888,-0.347,-12.390,36.865,100.647
0.115,0.839,-0.401,-24.048,33.325,91.675
0.115,0.811,-0.452,-31.738,28.687,85.876
0.124,0.799,-0.482,-36.133,24.475,82.214
0.134,0.789,-0.500,-34.912,21.545,79.956
0.121,0.777,-0.488,-28.870,20.691,79.163
0.085,0.800,-0.474,-20.996,22.034,80.078
0.065,0.828,-0.464,-12.878,25.330,80.688
0.055,0.864,-0.442,-5.127,29.053,80.261
0.029,0.907,-0.437,-0.427,32.593,79.102
0.009,0.961,-0.468,0.671,34.973,77.820
-0.005,1.002,-0.502,-1.770,34.729,75.500
-0.023,1.039,-0.539,-6.165,31.616,71.899
-0.029,1.067,-0.551,-10.498,26.367,68.298
-0.036,1.106,-0.531,-13.245,21.301,64.209
-0.041,1.140,-0.510,-16.113,18.860,59.448
-0.036,1.165,-0.503,-18.433,19.470,54.382
-0.034,1.197,-0.514,-22.095,20.935,49.927
-0.031,1.224,-0.542,-27.222,22.583,46.143
-0.043,1.244,-0.608,-30.945,23.254,42.542
-0.049,1.260,-0.668,-32.654,21.484,38.391
-0.068,1.268,-0.728,-32.532,18.555,33.508
-0.088,1.283,-0.770,-28.687,14.893,27.954
-0.103,1.313,-0.775,-22.278,10.803,21.118
-0.101,1.312,-0.749,-15.015,7.019,12.329
-0.087,1.282,-0.707,-8.911,4.272,3.174
-0.057,1.244,-0.664,-5.005,2.563,-4.517
-0.022,1.187,-0.645,-3.662,1.709,-9.583
0.000,1.125,-0.625,-2.930,0.854,-11.963
0.013,1.083,-0.613,-1.648,0.427,-11.963
0.017,1.047,-0.600,-0.244,0.732,-10.498
0.010,1.030,-0.589,2.808,2.197,-8.667
0.008,1.021,-0.589,4.517,4.211,-7.507
0.020,1.011,-0.593,5.127,5.310,-6.897
0.020,0.999,-0.596,4.639,4.883,-6.775
0.013,0.989,-0.593,3.662,2.502,-6.531
0.016,0.974,-0.573,3.235,-0.488,-6.653
0.025,0.961,-0.537,3.906,-2.380,-6.775
0.030,0.958,-0.511,4.211,-2.319,-6.836
0.033,0.959,-0.502,4.150,-0.916,-7.019
0.026,0.950,-0.500,3.113,0.000,-7.935
0.020,0.935,-0.496,0.916,-0.488,-9.155
0.019,0.926,-0.487,-0.366,-1.709,-9.827
0.020,0.918,-0.478,-1.160,-2.380,-10.925
0.023,0.909,-0.486,-2.747,-2.563,-12.024
0.029,0.890,-0.497,-3.784,-2.625,-13.184
0.035,0.880,-0.502,-3.235,-3.174,-14.282

0.808,0.071,-0.338,-14.709,-18.127,64.819
0.831,0.120,-0.263,-10.803,-22.949,74.951
0.802,0.171,-0.284,-9.155,-27.466,84.167
0.793,0.196,-0.288,-15.991,-30.457,88.867
0.809,0.234,-0.267,-18.555,-35.095,90.515
0.811,0.287,-0.241,-22.156,-39.673,89.294
0.827,0.295,-0.212,-32.471,-42.480,85.876
0.855,0.260,-0.295,-47.974,-46.753,83.008
0.893,0.166,-0.392,-64.331,-55.725,84.656
0.934,0.092,-0.442,-75.806,-70.129,91.003
0.969,-0.021,-0.532,-85.266,-86.243,100.220
0.990,-0.017,-0.525,-90.820,-102.112,112.976
0.968,-0.008,-0.468,-96.497,-116.943,127.197
0.997,0.043,-0.480,-111.450,-129.395,139.893
0.882,-0.041,-0.471,-131.897,-139.404,150.208
0.880,0.043,-0.533,-146.362,-148.254,160.278
0.806,0.117,-0.474,-165.649,-161.804,169.250
0.772,0.017,-0.493,-199.524,-172.729,176.941
0.910,0.288,-0.147,-229.370,-175.903,191.650
0.890,0.133,0.140,-232.056,-160.828,207.336
0.972,0.257,-0.052,-212.280,-127.502,218.445
0.912,0.363,-0.110,-204.590,-94.666,221.863
0.790,0.343,-0.383,-184.631,-67.810,223.206
0.678,0.362,-0.572,-160.400,-53.955,229.980
0.614,0.493,-0.575,-132.812,-52.246,244.812
0.533,0.650,-0.451,-108.276,-55.664,261.780
0.461,0.794,-0.332,-90.515,-57.007,276.001
0.316,0.885,-0.272,-80.139,-51.941,288.574
0.190,1.018,-0.290,-74.585,-43.213,303.345
0.101,1.215,-0.309,-77.209,-34.668,315.796
-0.011,1.432,-0.384,-88.318,-25.024,323.853
-0.119,1.671,-0.536,-103.333,-15.930,322.937
-0.180,1.824,-0.609,-121.277,-11.597,307.495
-0.231,1.766,-0.593,-137.024,-13.184,278.015
-0.266,1.676,-0.525,-142.212,-13.733,247.498
-0.299,1.641,-0.410,-134.827,-5.310,223.511
-0.410,1.646,-0.362,-126.404,15.564,205.017
-0.537,1.572,-0.459,-133.301,43.945,191.162
-0.728,1.454,-0.648,-144.226,69.336,184.326
-0.964,1.520,-0.872,-152.588,83.679,186.401
-1.110,1.692,-1.148,-163.574,84.290,191.101
-1.243,1.840,-1.420,-176.270,71.228,189.697
-1.434,1.908,-1.599,-187.744,46.692,180.908
-1.740,2.006,-1.716,-196.533,16.541,170.837
-1.968,2.219,-1.804,-204.529,-14.282,158.325
-2.082,2.469,-1.943,-217.957,-41.077,137.024
-2.303,2.573,-2.162,-234.436,-62.866,103.027
-2.634,2.544,-2.497,-235.596,-84.045,57.983
-3.017,2.573,-2.912,-210.693,-109.558,2.136
-3.436,2.646,-3.313,-181.763,-150.452,-73.303
-3.963,2.478,-3.555,-147.766,-208.191,-175.354
-4.000,2.220,-3.810,-99.609,-283.752,-303.711
-4.000,1.602,-3.689,-26.978,-378.113,-452.576
-4.000,0.701,-3.201,55.237,-488.281,-597.107
-4.000,-0.262,-2.166,126.587,-606.201,-709.778
-4.000,-1.325,-0.861,162.476,-713.562,-778.870
-4.000,-2.717,0.622,172.180,-784.851,-804.321
-4.000,-4.000,2.394,187.012,-807.007,-787.842
-3.964,-4.000,4.000,185.547,-784.485,-710.327
-3.480,-4.000,4.000,143.921,-735.901,-559.326
-3.383,-3.990,4.000,25.208,-682.922,-374.451
-3.411,-3.207,4.000,-139.526,-643.738,-224.731
-2.741,-2.360,4.000,-247.986,-632.996,-152.344
-1.693,-1.603,4.000,-268.738,-647.827,-163.757
-0.895,-1.258,4.000,-217.102,-646.484,-229.004
-0.339,-1.512,4.000,-104.919,-571.350,-304.443
0.755,-1.941,3.813,44.373,-400.879,-364.319
2.022,-2.438,1.991,137.573,-179.016,-373.108
2.469,-3.364,0.493,126.160,14.771,-304.321
2.287,-3.293,-0.054,125.366,98.938,-173.401
1.717,-2.396,0.618,126.099,85.693,-16.663
0.894,-1.015,1.508,149.963,52.917,102.173
0.307,0.310,2.162,158.020,43.762,151.550
0.107,1.071,2.131,112.549,60.547,139.160
0.191,0.991,1.422,28.687,84.290,91.492
0.344,0.483,0.562,-57.129,89.600,46.936
0.477,-0.007,-0.073,-107.605,64.392,30.090
0.546,-0.210,-0.260,-110.229,17.944,38.086
0.564,-0.108,-0.030,-81.970,-29.541,49.805
0.568,0.022,0.379,-52.673,-61.096,47.913
0.608,0.076,0.723,-32.288,-69.275,32.898
0.673,0.054,0.926,-20.508,-58.716,15.930
0.753,0.005,0.992,-16.357,-38.818,5.066
0.816,-0.061,0.969,-14.099,-17.944,3.418
0.833,-0.092,0.915,-10.864,0.549,9.216
0.819,-0.086,0.862,-7.324,16.174,17.517
0.783,-0.051,0.787,-2.258,28.076,22.888
0.750,-0.005,0.728,4.272,35.767,22.522
0.709,0.048,0.672,10.376,40.039,16.724
0.692,0.048,0.595,12.146,40.588,6.653
0.713,-0.016,0.531,9.277,36.499,-5.310
0.733,-0.134,0.496,5.371,29.053,-15.747
0.762,-0.263,0.491,2.869,21.118,-21.301
0.804,-0.320,0.522,2.258,15.015,-19.836
0.830,-0.316,0.556,3.723,12.390,-13.184
0.827,-0.295,0.577,4.456,13.550,-6.531
0.799,-0.261,0.598,3.296,17.212,-1.587
0.772,-0.238,0.589,2.747,23.315,1.770
0.761,-0.236,0.550,3.479,29.480,2.686
0.746,-0.234,0.501,5.676,34.058,2.014
0.730,-0.224,0.459,10.803,36.255,1.038
0.732,-0.199,0.433,15.747,35.828,-0.732
0.742,-0.179,0.433,18.616,33.569,-3.296
0.757,-0.190,0.428,18.616,30.334,-5.127
0.770,-0.206,0.419,12.451,25.757,-5.371
0.777,-0.220,0.421,5.554,20.264,-3.723
0.777,-0.213,0.427,1.892,15.137,-0.732
0.788,-0.204,0.439,0.000,11.597,0.977
0.806,-0.201,0.442,1.404,10.071,1.282
0.812,-0.216,0.443,4.639,10.315,1.038
0.804,-0.235,0.454,8.545,11.780,-0.305
0.799,-0.238,0.453,15.137,14.343,-2.686
0.799,-0.256,0.445,22.217,17.334,-5.310
0.820,-0.274,0.437,26.245,19.531,-8.240
0.855,-0.338,0.431,28.076,20.081,-10.071
0.894,-0.403,0.456,28.076,18.799,-8.179
0.916,-0.408,0.473,27.161,18.005,-1.587
0.934,-0.380,0.460,24.658,18.555,8.789
0.918,-0.396,0.455,21.851,20.081,18.982
0.897,-0.352,0.456,20.203,21.851,28.442
0.871,-0.323,0.456,19.775,23.071,36.987
0.848,-0.232,0.458,19.104,23.193,43.274
0.821,-0.167,0.421,18.311,22.705,44.373
0.801,-0.149,0.387,18.066,21.423,41.748
0.792,-0.143,0.468,23.315,21.118,37.476
0.819,-0.045,0.486,37.170,25.146,32.166
0.823,-0.071,0.372,42.297,34.363,23.254
0.825,-0.151,0.387,39.856,41.809,13.184
0.822,-0.220,0.363,47.424,46.875,5.981
0.847,-0.233,0.333,58.533,49.255,3.174
0.884,-0.256,0.387,63.538,47.974,1.160
0.895,-0.281,0.455,65.979,46.997,-0.183
0.904,-0.281,0.459,64.331,48.645,1.892
0.901,-0.298,0.404,55.298,49.988,7.141
0.877,-0.310,0.349,44.678,46.997,14.526
0.850,-0.297,0.327,35.522,39.551,21.362
0.848,-0.297,0.331,27.527,30.212,24.780
0.855,-0.275,0.358,21.179,22.522,25.940
0.876,-0.265,0.378,19.043,17.517,25.269
0.894,-0.264,0.381,19.897,16.113,23.193
0.900,-0.274,0.378,23.071,16.907,22.156
0.902,-0.265,0.377,27.405,18.005,22.461
0.909,-0.242,0.394,31.738,18.494,22.827
0.918,-0.223,0.438,33.203,18.311,23.254
0.913,-0.220,0.484,30.029,18.433,25.391
0.900,-0.237,0.517,20.569,19.287,29.236
0.906,-0.240,0.559,9.094,20.508,34.485
0.916,-0.250,0.559,-0.854,23.315,38.940
0.925,-0.270,0.536,-8.667,28.870,43.335

0.105,1.350,-0.509,-0.977,45.349,71.960
-0.001,1.448,-0.607,-11.230,45.837,75.928
-0.026,1.562,-0.620,-27.100,41.138,76.233
-0.143,1.621,-0.652,-43.274,32.227,70.557
-0.210,1.695,-0.778,-59.387,23.560,61.890
-0.283,1.862,-0.902,-68.848,14.526,54.138
-0.414,2.077,-0.955,-72.266,7.935,43.579
-0.510,2.237,-0.980,-73.486,8.606,24.597
-0.660,2.314,-1.156,-72.388,18.127,-1.587
-0.906,2.636,-1.550,-65.308,32.593,-22.156
-1.336,3.317,-2.096,-55.847,41.809,-35.706
-1.856,3.965,-2.686,-57.617,35.034,-59.265
-2.276,4.000,-3.254,-73.730,4.395,-104.675
-2.559,4.000,-3.220,-87.708,-45.044,-169.312
-2.875,4.000,-2.943,-78.857,-91.553,-246.826
-3.076,3.603,-2.961,-69.275,-103.760,-336.548
-3.241,3.126,-3.171,-62.683,-101.990,-425.781
-3.189,2.115,-3.038,-33.691,-117.981,-502.563
-3.194,1.461,-2.581,11.230,-165.955,-549.805
-3.091,1.015,-1.838,40.222,-237.427,-572.632
-3.073,0.373,-0.943,46.753,-307.678,-587.219
-3.030,-0.622,-0.126,34.058,-362.854,-590.576
-2.751,-1.868,0.921,10.620,-402.527,-575.989
-2.189,-3.136,1.893,-42.969,-426.025,-545.166
-1.610,-3.815,2.383,-90.576,-433.044,-488.831
-1.556,-3.974,2.647,-108.948,-432.251,-403.198
-1.590,-3.992,2.860,-142.334,-432.556,-305.908
-1.414,-3.465,2.933,-181.519,-439.636,-219.421
-1.258,-2.760,2.983,-195.923,-453.857,-160.400
-0.984,-2.099,3.386,-188.354,-475.647,-139.465
-0.453,-1.534,3.748,-173.096,-489.746,-150.146
0.084,-1.285,3.970,-152.466,-475.586,-178.650
0.530,-1.292,3.936,-116.455,-421.143,-206.482
0.883,-1.429,3.420,-54.565,-324.158,-220.276
1.153,-1.487,2.575,11.658,-197.937,-210.449
1.303,-1.421,1.752,45.959,-65.308,-173.401
1.249,-1.328,1.053,44.495,45.532,-123.718
1.019,-1.209,0.503,28.381,112.366,-76.172
0.720,-1.067,-0.189,14.526,128.967,-33.325
0.603,-0.734,0.133,27.832,90.027,-2.625
0.492,-0.431,0.407,34.302,21.790,12.695
0.490,-0.074,0.658,39.490,-34.058,17.090
0.618,0.020,0.910,27.283,-63.782,16.541
0.749,-0.015,0.904,15.625,-60.913,14.526
0.802,-0.040,0.787,11.475,-38.574,15.747
0.792,-0.013,0.660,12.878,-11.414,21.179
0.732,0.064,0.566,15.198,8.911,26.184
0.654,0.121,0.510,14.160,17.456,25.757
0.627,0.097,0.501,8.057,13.428,18.250
0.657,0.006,0.525,0.671,1.526,8.179
0.709,-0.099,0.568,-4.028,-10.864,0.366
0.774,-0.156,0.618,-4.639,-19.226,-3.601
0.830,-0.168,0.658,-1.221,-20.569,-4.089
0.854,-0.138,0.674,4.272,-15.808,-2.197
0.837,-0.100,0.695,9.460,-8.362,1.160
0.818,-0.038,0.709,15.930,-0.793,3.357
0.793,0.008,0.704,22.766,6.775,2.014
0.772,0.015,0.692,25.940,13.000,-2.441
0.759,-0.031,0.650,25.146,17.090,-7.507
0.750,-0.104,0.587,22.095,19.043,-11.963
0.757,-0.154,0.528,18.982,18.066,-15.625
0.776,-0.202,0.479,16.296,14.771,-17.517
0.794,-0.240,0.462,12.573,9.460,-16.663
0.806,-0.261,0.484,7.629,2.380,-13.672
0.813,-0.299,0.524,2.258,-4.150,-9.155
0.821,-0.321,0.579,-2.319,-8.789,-4.211
0.830,-0.314,0.630,-3.723,-10.803,0.916
0.824,-0.273,0.672,-3.357,-9.338,5.371
0.807,-0.227,0.672,-2.014,-4.456,8.667
0.790,-0.186,0.634,-0.488,2.808,10.620
0.774,-0.149,0.598,0.183,8.545,10.437
0.750,-0.147,0.568,-0.427,10.437,7.935
0.755,-0.149,0.545,-2.075,8.667,5.005
0.783,-0.140,0.532,-3.845,4.578,3.662
0.799,-0.135,0.539,-5.432,-0.183,3.235
0.802,-0.140,0.557,-6.592,-2.930,3.052
0.807,-0.139,0.574,-5.615,-3.113,2.686
0.811,-0.158,0.565,-4.211,-0.977,1.648
0.818,-0.188,0.553,-2.563,1.770,0.977
0.817,-0.181,0.556,-0.671,4.089,0.854
0.822,-0.173,0.547,0.122,5.188,0.122
0.828,-0.190,0.529,-1.160,5.371,-1.404
0.831,-0.214,0.509,-4.150,4.761,-1.099
0.831,-0.207,0.501,-4.822,3.601,1.038
0.806,-0.185,0.500,-4.578,3.357,4.028
0.784,-0.167,0.506,-5.432,4.150,4.822
0.785,-0.169,0.501,-6.226,4.578,2.686
0.808,-0.187,0.490,-6.348,4.456,-0.671
0.830,-0.229,0.483,-5.981,3.357,-3.113
0.844,-0.260,0.486,-5.798,1.587,-3.479
0.844,-0.273,0.497,-5.371,0.244,-1.892
0.847,-0.256,0.504,-4.761,-0.183,0.427
0.842,-0.236,0.508,-4.395,0.244,1.709
0.834,-0.242,0.511,-4.028,1.831,3.052
0.839,-0.257,0.513,-3.845,4.395,4.211
0.844,-0.243,0.507,-1.343,7.812,5.371
0.841,-0.214,0.489,1.892,10.742,6.592
0.838,-0.216,0.469,1.648,12.207,7.996
0.828,-0.217,0.450,-0.305,11.902,9.644
0.816,-0.221,0.435,-0.671,10.071,11.780
0.805,-0.194,0.436,-0.793,7.996,13.367
0.802,-0.144,0.447,-0.549,6.165,14.343
0.802,-0.103,0.449,-0.366,5.371,13.123
0.791,-0.087,0.443,-0.671,5.554,9.399
0.780,-0.106,0.441,-2.686,5.920,5.127
0.782,-0.131,0.427,-4.211,5.310,2.197
0.794,-0.151,0.410,-4.578,3.784,0.122
0.804,-0.171,0.410,-4.700,1.465,-1.404
0.824,-0.200,0.436,-3.784,-0.854,-2.075
0.853,-0.211,0.484,-2.930,-1.770,-2.197
0.859,-0.210,0.505,-1.099,-0.427,-1.770
0.852,-0.210,0.507,0.427,3.296,-0.488
0.849,-0.195,0.495,2.258,7.202,0.916
0.842,-0.193,0.463,3.540,9.888,2.075
0.833,-0.184,0.443,3.479,10.254,3.418
0.825,-0.178,0.435,2.075,8.362,4.639
0.826,-0.178,0.436,0.000,4.822,5.554
0.833,-0.173,0.446,-1.343,1.282,6.226
0.829,-0.158,0.468,-1.282,-0.977,6.836
0.825,-0.143,0.485,-0.305,-1.160,6.775
0.821,-0.133,0.497,1.160,0.549,5.554
0.818,-0.129,0.497,2.747,3.723,3.296
0.824,-0.133,0.493,3.662,7.202,0.854
0.835,-0.130,0.484,3.906,9.705,-1.038
0.839,-0.131,0.468,2.869,10.315,-1.892
0.833,-0.148,0.448,0.305,9.094,-1.648
0.825,-0.171,0.439,-2.563,5.981,-0.427
0.823,-0.167,0.438,-3.723,2.625,1.465
0.822,-0.171,0.442,-3.113,-0.244,3.113
0.823,-0.174,0.465,-1.770,-1.221,3.601
0.825,-0.166,0.467,1.587,-0.183,3.479
0.823,-0.164,0.462,4.150,1.953,3.113
0.812,-0.162,0.457,5.554,3.906,2.319
0.804,-0.171,0.457,5.554,5.188,1.282
0.807,-0.177,0.448,4.822,5.493,0.183
0.817,-0.179,0.437,4.517,4.944,-0.488
0.814,-0.175,0.451,4.639,3.479,-0.061
0.814,-0.149,0.465,4.700,2.563,1.465
0.813,-0.134,0.463,4.028,3.479,2.319
0.815,-0.133,0.453,2.991,4.761,2.747
0.814,-0.131,0.438,1.770,5.737,2.441
0.813,-0.158,0.440,2.014,5.981,1.465
0.826,-0.154,0.450,4.456,5.554,0.488
0.838,-0.143,0.451,6.104,5.005,-1.465
0.837,-0.173,0.464,5.432,4.578,-4.089
0.844,-0.192,0.464,4.944,4.456,-5.066
0.859,-0.212,0.465,4.517,4.639,-5.066
0.861,-0.229,0.454,4.272,5.188,-4.211
0.864,-0.227,0.457,3.662,6.042,-1.831

0.214,-0.041,-1.005,31.860,11.841,-2.258
0.232,0.031,-0.910,39.001,15.564,1.160
0.191,0.018,-0.918,36.133,22.583,2.014
0.193,-0.001,-0.950,33.752,28.625,3.113
0.187,-0.017,-0.959,34.607,31.555,3.235
0.218,-0.044,-0.984,33.875,32.104,5.127
0.235,-0.052,-0.999,28.870,29.663,10.681
0.217,-0.048,-1.011,23.437,24.231,17.395
0.188,0.006,-0.998,22.339,18.372,23.865
0.150,0.035,-0.968,24.231,14.771,26.550
0.169,0.023,-0.927,25.269,13.733,24.231
0.199,0.048,-0.838,23.071,13.428,21.851
0.159,0.073,-0.830,13.977,14.160,21.057
0.141,0.106,-0.960,0.916,14.587,21.179
0.168,0.117,-1.085,-8.789,8.911,18.799
0.153,0.097,-1.117,-10.742,-3.479,12.329
0.146,0.114,-1.086,-7.629,-17.029,7.019
0.146,0.108,-1.042,-7.812,-28.687,3.845
0.179,0.112,-0.840,-12.390,-37.354,2.197
0.122,0.050,-1.058,-17.273,-41.504,2.136
0.149,0.025,-1.003,-30.945,-47.729,4.761
0.135,-0.018,-0.982,-41.199,-52.185,8.972
0.173,-0.023,-0.949,-49.377,-53.528,14.282
0.089,-0.316,-0.817,-52.979,-50.415,21.973
0.133,-0.059,-0.909,-42.114,-40.344,36.743
0.206,0.143,-0.926,-44.495,-30.273,46.570
0.266,0.195,-0.878,-57.251,-22.034,44.128
0.264,0.212,-0.885,-60.852,-13.550,32.898
0.225,0.228,-0.968,-56.152,-5.493,18.311
0.179,0.133,-1.035,-52.307,-0.549,3.296
0.162,0.006,-1.064,-47.852,0.977,-7.568
0.175,-0.062,-1.084,-39.001,0.610,-12.512
0.205,-0.082,-1.073,-29.297,-0.244,-12.207
0.233,-0.084,-1.033,-22.766,-1.282,-8.545
0.248,-0.074,-0.982,-19.470,-0.854,-3.235
0.253,-0.057,-0.947,-19.348,1.099,2.808
0.255,-0.042,-0.931,-22.583,4.211,8.118
0.260,-0.032,-0.924,-27.710,7.385,11.597
0.263,-0.035,-0.941,-33.142,10.132,13.489
0.264,-0.047,-0.964,-38.879,11.475,14.404
0.259,-0.072,-0.985,-43.884,11.047,15.991
0.249,-0.104,-0.990,-47.729,9.155,17.883
0.234,-0.119,-0.985,-49.866,7.019,19.958
0.231,-0.119,-0.983,-50.537,5.493,22.461
0.227,-0.106,-0.995,-50.110,5.005,23.743
0.214,-0.100,-0.999,-49.805,4.761,23.010
0.197,-0.088,-1.026,-44.250,4.028,21.362
0.193,-0.094,-0.992,-35.767,3.052,17.944
0.193,-0.095,-0.992,-30.029,3.052,13.916
0.201,-0.088,-0.995,-25.940,4.639,9.827
0.212,-0.110,-0.999,-22.766,6.653,4.761
0.224,-0.137,-1.013,-18.555,8.423,0.854
0.227,-0.145,-1.036,-12.695,9.277,-0.671
0.219,-0.136,-1.051,-8.850,9.338,-1.099
0.209,-0.127,-1.058,-7.263,8.972,-0.916
0.193,-0.116,-1.073,-6.348,7.996,-0.732
0.175,-0.107,-1.074,-6.104,6.531,-0.732
0.168,-0.105,-1.074,-5.554,4.517,-1.282
0.175,-0.118,-1.071,-3.479,2.441,-3.601
0.180,-0.121,-1.058,0.854,0.427,-6.409
0.186,-0.111,-1.034,5.615,-1.099,-10.254
0.191,-0.099,-1.013,9.216,-2.197,-14.343
0.199,-0.089,-1.003,10.620,-2.991,-17.944
0.209,-0.075,-1.013,10.986,-4.028,-20.264
0.212,-0.134,-0.981,10.437,-6.042,-21.545
0.214,-0.137,-0.949,12.695,-6.775,-20.264
0.215,-0.112,-0.888,13.733,-5.127,-16.968
0.234,-0.062,-0.876,10.010,-0.854,-14.465
0.244,-0.045,-0.877,1.465,4.761,-14.465
0.245,-0.060,-0.907,-8.728,10.071,-16.357
0.243,-0.055,-0.970,-17.639,13.123,-19.714
0.212,-0.089,-1.029,-24.109,12.817,-23.315
0.180,-0.152,-1.074,-27.588,8.423,-24.963
0.155,-0.177,-1.164,-27.039,1.709,-23.987
0.141,-0.246,-1.186,-26.367,-6.897,-21.179
0.163,-0.339,-1.091,-22.156,-16.479,-16.479
0.199,-0.317,-1.019,-11.353,-21.423,-9.888
0.256,-0.239,-0.966,-6.042,-20.203,-4.822
0.329,-0.176,-0.926,-6.958,-15.015,-2.869
0.386,-0.138,-0.914,-11.963,-8.911,-3.357
0.392,-0.156,-0.991,-20.874,-3.357,-4.211
0.390,-0.254,-1.129,-34.729,-1.038,-4.150
0.416,-0.483,-1.266,-52.124,-4.211,-0.854
0.482,-0.719,-1.427,-66.833,-12.573,9.827
0.546,-0.831,-1.586,-76.416,-25.818,29.175
0.584,-0.874,-1.674,-84.534,-42.542,53.894
0.592,-0.987,-1.723,-90.332,-59.326,80.261
0.588,-0.988,-1.710,-93.262,-73.364,109.009
0.566,-0.901,-1.545,-88.684,-79.773,135.437
0.626,-0.950,-1.574,-78.247,-74.036,150.635
0.688,-1.012,-1.637,-76.721,-63.416,159.119
0.689,-1.064,-1.748,-78.247,-56.213,165.649
0.569,-0.960,-1.877,-75.562,-56.763,175.171
0.393,-0.882,-1.869,-70.862,-65.857,185.425
0.378,-0.896,-1.822,-63.049,-79.956,192.688
0.526,-0.879,-1.708,-54.382,-96.680,194.824
0.522,-0.977,-1.728,-49.927,-106.079,191.406
0.642,-1.022,-1.514,-45.532,-121.155,201.111
0.704,-1.043,-1.359,-48.096,-137.695,221.375
0.999,-1.052,-1.412,-70.129,-137.146,248.108
0.387,-1.217,-1.504,-85.632,-138.672,278.931
0.465,-0.974,-1.539,-121.338,-140.381,322.205
0.338,-0.674,-1.642,-167.358,-140.381,351.624
0.131,-0.716,-1.975,-203.979,-144.226,354.614
0.198,-0.751,-1.789,-213.501,-160.156,341.187
0.297,-0.975,-1.431,-204.102,-182.068,322.754
0.306,-0.977,-1.043,-173.401,-189.697,311.218
0.220,-0.821,-0.827,-153.931,-185.608,323.181
0.088,-0.657,-0.781,-144.531,-186.707,357.971
-0.086,-0.448,-0.949,-130.554,-189.026,396.179
-0.181,-0.212,-1.059,-125.427,-200.745,430.176
-0.216,0.040,-0.955,-125.000,-226.013,458.740
-0.264,0.190,-0.757,-124.146,-252.502,477.112
-0.342,0.238,-0.668,-132.935,-270.142,489.380
-0.443,0.316,-0.559,-140.625,-277.039,498.840
-0.530,0.421,-0.443,-140.198,-270.569,505.615
-0.628,0.566,-0.349,-136.902,-249.268,507.874
-0.720,0.802,-0.326,-132.019,-215.210,504.272
-0.774,1.015,-0.388,-132.935,-173.584,493.958
-0.791,1.177,-0.484,-145.569,-131.226,478.333
-0.799,1.296,-0.620,-160.034,-91.919,457.825
-0.779,1.297,-0.785,-167.297,-56.458,432.800
-0.778,1.246,-0.909,-167.480,-27.100,408.508
-0.818,1.241,-0.978,-159.363,-3.845,383.057
-0.857,1.260,-1.067,-157.654,14.771,356.323
-0.906,1.234,-1.166,-172.485,28.503,327.454
-0.913,1.305,-1.243,-197.754,35.889,299.377
-1.015,1.443,-1.512,-227.661,36.072,273.376
-1.112,1.542,-1.709,-224.609,29.907,246.460
-1.205,1.588,-1.771,-205.139,18.555,219.910
-1.353,1.710,-1.936,-185.242,2.625,194.092
-1.488,1.992,-2.110,-168.213,-18.433,167.542
-1.560,2.223,-2.233,-159.546,-42.725,137.817
-1.656,2.238,-2.368,-159.790,-65.735,104.614
-1.927,2.158,-2.595,-159.058,-87.585,66.650
-1.951,2.164,-2.676,-141.724,-120.178,17.334
-2.271,2.121,-2.690,-127.808,-152.405,-40.344
-2.540,2.124,-2.820,-102.478,-187.378,-98.450
-2.767,2.068,-2.969,-74.646,-235.046,-161.743
-3.036,1.900,-2.973,-47.729,-299.927,-238.586
-3.412,1.510,-2.853,-8.423,-377.258,-326.599
-3.725,1.058,-2.529,46.814,-459.778,-419.373
-4.000,0.398,-1.886,112.000,-543.640,-513.855
-4.000,-0.544,-1.007,172.485,-627.075,-594.299
-4.000,-1.681,0.330,208.313,-707.520,-650.757
-4.000,-2.858,2.102,215.698,-768.860,-684.692
-4.000,-3.568,3.542,213.135,-792.725,-693.359
-4.000,-4.000,4.000,186.096,-776.794,-678.040
-4.000,-4.000,4.000,99.304,-731.323,-604.980

0.322,0.528,-1.057,-12.390,-26.245,-12.207
0.433,0.477,-0.912,1.953,-32.471,-17.212
0.454,0.458,-0.818,5.188,-34.241,-16.174
0.488,0.455,-0.745,2.197,-32.104,-11.658
0.501,0.456,-0.700,-1.221,-28.320,-7.263
0.500,0.433,-0.710,-5.615,-22.461,-3.845
0.483,0.406,-0.753,-7.446,-17.212,0.244
0.458,0.415,-0.753,-6.714,-15.076,4.456
0.418,0.458,-0.756,-2.625,-13.794,7.263
0.386,0.505,-0.782,3.174,-11.414,7.202
0.378,0.536,-0.764,10.803,-9.705,3.723
0.383,0.531,-0.750,15.320,-8.911,-0.916
0.394,0.529,-0.722,14.954,-9.277,-3.784
0.394,0.537,-0.687,11.353,-10.254,-5.127
0.388,0.539,-0.676,6.714,-9.888,-6.042
0.371,0.547,-0.700,2.197,-8.911,-6.958
0.333,0.569,-0.708,-1.282,-8.240,-8.484
0.294,0.588,-0.704,-2.014,-7.507,-11.536
0.265,0.620,-0.709,-2.625,-5.554,-16.235
0.254,0.588,-0.716,-2.747,-2.136,-22.522
0.307,0.561,-0.740,-0.183,-1.343,-28.259
0.351,0.515,-0.759,-2.441,-1.892,-31.982
0.384,0.508,-0.766,-6.226,-3.723,-31.860
0.402,0.518,-0.766,-8.423,-5.676,-30.090
0.405,0.526,-0.765,-9.705,-6.042,-28.931
0.413,0.537,-0.790,-9.949,-5.127,-29.541
0.431,0.563,-0.805,-9.277,-4.700,-30.518
0.453,0.575,-0.826,-8.484,-5.127,-33.447
0.485,0.557,-0.886,-7.141,-5.981,-37.781
0.531,0.553,-0.922,-4.272,-8.301,-42.480
0.592,0.566,-0.920,-0.183,-12.268,-47.729
0.661,0.563,-0.901,5.127,-16.296,-53.284
0.750,0.568,-0.880,9.949,-18.677,-58.044
0.844,0.582,-0.875,13.367,-19.592,-61.340
0.927,0.570,-0.931,15.259,-19.531,-62.744
1.011,0.594,-0.957,20.630,-21.606,-63.354
1.080,0.618,-0.959,26.001,-25.269,-64.758
1.146,0.650,-0.988,27.527,-28.320,-66.467
1.192,0.660,-1.028,27.527,-31.555,-70.679
1.215,0.642,-1.076,26.733,-35.889,-76.538
1.242,0.620,-1.107,25.696,-42.358,-82.336
1.261,0.599,-1.103,24.292,-50.781,-86.914
1.267,0.593,-1.067,21.606,-60.120,-90.149
1.253,0.566,-1.047,17.700,-68.420,-92.407
1.233,0.550,-1.032,12.146,-75.684,-93.994
1.212,0.497,-1.041,6.958,-82.275,-95.459
1.202,0.447,-1.024,3.784,-88.867,-96.130
1.164,0.388,-0.964,4.578,-94.971,-95.032
1.148,0.331,-0.888,10.315,-98.450,-91.980
1.135,0.265,-0.796,18.555,-98.572,-86.365
1.107,0.230,-0.685,26.306,-95.459,-78.613
1.070,0.207,-0.575,32.043,-89.355,-69.824
1.015,0.218,-0.458,35.278,-81.604,-62.683
0.986,0.218,-0.304,35.889,-72.754,-59.021
0.969,0.184,-0.198,31.616,-62.378,-56.458
0.942,0.138,-0.166,22.522,-51.758,-50.659
0.934,0.142,-0.163,9.216,-43.030,-40.771
0.906,0.177,-0.184,-6.042,-37.170,-29.907
0.864,0.188,-0.222,-20.569,-34.058,-21.301
0.840,0.213,-0.252,-31.067,-32.043,-15.076
0.820,0.219,-0.298,-34.302,-29.175,-10.742
0.729,0.188,-0.302,-31.311,-23.499,-8.850
0.685,0.268,-0.315,-23.376,-15.564,-7.385
0.631,0.284,-0.307,-13.184,-7.324,-9.216
0.649,0.291,-0.327,-1.831,0.122,-13.977
0.677,0.282,-0.344,4.211,5.615,-19.592
0.703,0.229,-0.361,4.211,6.775,-22.766
0.745,0.206,-0.375,0.610,7.324,-21.484
0.778,0.225,-0.397,-5.798,10.437,-16.785
0.771,0.255,-0.442,-12.939,15.137,-13.367
0.745,0.272,-0.477,-18.494,19.287,-12.512
0.729,0.289,-0.506,-22.156,23.132,-14.282
0.732,0.267,-0.525,-23.376,26.489,-17.883
0.747,0.205,-0.577,-23.560,27.588,-21.179
0.787,0.139,-0.608,-24.658,25.879,-21.057
0.855,0.088,-0.601,-29.358,21.179,-15.320
0.914,0.049,-0.584,-37.842,16.052,-5.127
0.943,-0.005,-0.553,-49.011,12.695,7.935
0.947,-0.055,-0.507,-58.655,12.146,23.621
0.922,-0.072,-0.482,-65.186,17.212,40.649
0.805,-0.040,-0.589,-70.007,27.466,57.617
0.760,-0.004,-0.603,-73.120,34.485,70.129
0.652,-0.062,-0.615,-78.064,41.077,79.895
0.551,-0.078,-0.658,-73.853,49.683,89.722
0.430,-0.148,-0.625,-64.819,55.481,97.412
0.302,-0.283,-0.534,-58.228,60.242,102.844
0.201,-0.492,-0.418,-51.880,65.918,109.924
0.073,-0.769,-0.251,-49.500,71.899,122.620
-0.091,-1.063,-0.063,-57.556,78.186,148.315
-0.298,-1.213,0.016,-84.656,88.867,193.970
-0.599,-1.073,-0.077,-134.399,105.286,253.662
-0.925,-0.704,-0.402,-191.833,125.061,310.791
-1.207,-0.337,-0.820,-237.122,144.043,348.877
-1.371,0.144,-1.250,-256.409,158.752,364.014
-1.363,0.719,-1.787,-243.835,167.480,356.079
-1.127,1.322,-2.193,-199.463,164.124,325.073
-0.816,1.783,-2.380,-129.272,145.630,275.146
-0.587,2.066,-2.327,-51.819,116.333,219.482
-0.513,2.121,-2.082,13.977,80.994,164.917
-0.566,1.919,-1.746,59.937,45.044,110.291
-0.602,1.555,-1.327,87.280,12.451,50.354
-0.529,1.101,-0.956,96.741,-12.207,-11.597
-0.345,0.668,-0.684,90.454,-30.823,-63.904
-0.154,0.326,-0.483,73.425,-47.058,-95.581
0.031,0.084,-0.300,49.927,-59.631,-108.398
0.211,-0.086,-0.173,26.306,-63.354,-109.619
0.349,-0.210,-0.133,8.484,-57.617,-102.722
0.454,-0.286,-0.158,-4.517,-46.204,-89.905
0.525,-0.284,-0.240,-13.489,-32.837,-71.350
0.540,-0.219,-0.350,-20.691,-20.874,-49.194
0.516,-0.094,-0.456,-27.527,-12.207,-27.466
0.471,0.030,-0.567,-32.837,-6.348,-10.864
0.414,0.107,-0.682,-34.424,-2.136,-1.221
0.371,0.194,-0.748,-30.579,0.305,3.906
0.350,0.272,-0.790,-22.705,1.953,5.127
0.351,0.297,-0.796,-13.611,2.991,2.136
0.355,0.310,-0.790,-4.700,3.296,-1.648
0.369,0.307,-0.768,0.610,2.686,-4.028
0.384,0.296,-0.732,1.404,1.892,-4.944
0.398,0.278,-0.686,-3.052,1.343,-4.944
0.413,0.278,-0.684,-10.681,2.747,-3.174
0.410,0.263,-0.730,-18.860,5.798,-0.793
0.413,0.264,-0.787,-27.039,7.935,1.831
0.396,0.281,-0.844,-32.227,9.216,4.944
0.371,0.314,-0.893,-32.471,10.437,6.592
0.354,0.335,-0.948,-27.527,12.207,6.104
0.345,0.331,-0.986,-18.677,13.550,3.723
0.348,0.323,-0.993,-7.812,13.672,1.038
0.361,0.316,-0.977,1.953,13.367,-1.099
0.365,0.293,-0.964,8.240,12.695,-2.747
0.382,0.303,-0.946,10.559,11.414,-3.235
0.387,0.299,-0.938,9.216,9.094,-2.808
0.392,0.293,-0.923,4.883,5.615,-2.014
0.391,0.280,-0.905,-0.610,1.648,-0.671
0.380,0.272,-0.884,-5.920,-1.648,1.099
0.372,0.270,-0.874,-10.132,-3.540,3.052
0.369,0.277,-0.875,-13.184,-4.211,4.456
0.377,0.280,-0.867,-13.794,-3.967,4.883
0.381,0.299,-0.861,-10.620,-2.563,4.089
0.369,0.305,-0.867,-6.958,-0.305,2.441
0.370,0.310,-0.873,-4.211,1.831,0.977
0.379,0.314,-0.880,-2.014,3.357,-0.244
0.387,0.311,-0.896,-2.014,4.089,-1.221
0.396,0.301,-0.911,-3.174,3.601,-1.648
0.396,0.294,-0.920,-5.188,2.014,-0.793
0.386,0.297,-0.921,-7.935,0.061,0.793
0.380,0.309,-0.924,-11.047,-1.587,2.502
0.374,0.316,-0.922,-13.733,-3.052,3.174
0.366,0.327,-0.911,-14.832,-3.967,3.418

0.965,0.144,-0.762,-15.320,-56.519,17.456
1.037,0.204,-0.488,-18.555,-72.205,22.095
1.023,0.276,-0.314,-26.733,-80.078,25.391
1.046,0.257,-0.281,-40.710,-76.843,25.330
1.090,0.202,-0.363,-51.086,-69.092,24.658
1.137,0.114,-0.492,-61.646,-66.589,27.161
1.170,0.078,-0.655,-72.327,-72.571,35.034
1.163,0.072,-0.831,-80.811,-85.449,46.692
1.214,0.133,-0.863,-81.909,-101.868,58.350
1.326,0.163,-0.754,-86.975,-119.141,67.871
1.439,0.201,-0.672,-114.075,-134.949,77.881
1.520,0.196,-0.727,-166.931,-152.771,89.844
1.497,0.089,-0.816,-224.182,-174.377,103.088
1.534,-0.116,-0.936,-263.184,-197.083,118.652
1.394,-0.240,-0.945,-270.081,-220.886,140.381
1.251,-0.186,-0.835,-238.708,-247.192,167.725
1.079,0.115,-0.414,-196.655,-257.446,194.824
1.144,0.105,-0.289,-193.481,-245.789,206.848
0.961,0.249,-0.346,-221.741,-214.539,207.886
0.746,0.466,-0.424,-207.520,-193.115,208.130
0.874,0.691,-0.276,-153.992,-196.960,208.496
0.900,0.530,-0.225,-150.696,-210.510,199.158
0.840,0.459,-0.192,-209.412,-214.355,189.331
0.752,0.331,-0.281,-254.883,-216.370,181.885
0.744,0.258,-0.400,-268.250,-216.736,181.030
0.855,0.277,-0.192,-266.479,-215.088,192.322
0.775,0.463,-0.076,-307.800,-203.796,220.093
0.496,0.530,-0.384,-328.003,-183.289,251.770
0.337,0.686,-0.430,-259.033,-169.250,271.362
0.240,0.861,-0.417,-187.805,-151.672,265.747
0.127,1.024,-0.305,-124.512,-128.784,245.850
0.114,0.961,-0.238,-78.735,-105.652,223.755
0.082,0.990,-0.181,-58.716,-89.722,211.853
-0.025,1.061,-0.224,-75.928,-87.402,212.708
-0.151,1.135,-0.371,-132.568,-101.624,220.764
-0.178,1.134,-0.449,-197.266,-129.700,225.281
-0.243,1.117,-0.518,-257.996,-161.499,226.196
-0.253,1.100,-0.541,-300.659,-190.918,225.769
-0.238,1.059,-0.580,-331.848,-211.609,226.257
-0.228,0.989,-0.674,-354.858,-220.825,232.117
-0.219,0.970,-0.695,-356.873,-220.642,243.774
-0.265,1.047,-0.635,-340.088,-212.036,259.155
-0.248,1.195,-0.532,-326.355,-191.528,273.926
-0.368,1.171,-0.533,-326.599,-158.752,278.137
-0.438,1.143,-0.704,-337.830,-122.192,273.132
-0.512,1.121,-0.898,-340.881,-91.370,259.155
-0.609,1.057,-1.102,-333.130,-67.261,240.540
-0.707,0.986,-1.396,-314.209,-51.208,225.830
-0.634,0.869,-1.695,-276.367,-42.419,216.736
-0.777,0.986,-1.665,-221.680,-36.438,212.952
-0.805,1.182,-1.221,-177.002,-31.128,210.754
-0.925,1.254,-1.254,-186.584,-14.648,197.937
-1.104,1.529,-1.365,-202.332,2.686,185.913
-1.363,1.622,-1.623,-212.769,14.954,175.598
-1.626,1.693,-1.982,-232.666,13.062,162.170
-1.878,1.782,-2.303,-265.991,-8.118,144.714
-2.337,1.718,-2.667,-304.260,-41.443,123.535
-2.529,1.550,-3.315,-333.801,-77.698,105.652
-2.702,1.364,-3.932,-293.274,-111.267,74.951
-2.911,1.212,-4.000,-177.368,-153.503,20.020
-3.199,1.059,-4.000,-50.842,-214.600,-50.232
-3.377,0.881,-3.740,62.988,-280.762,-134.216
-3.604,0.604,-3.356,160.522,-334.167,-228.027
-3.780,0.407,-2.987,233.459,-373.535,-325.134
-3.899,0.160,-2.553,266.052,-410.034,-419.800
-3.973,-0.415,-2.232,246.704,-456.970,-494.385
-4.000,-1.226,-1.835,199.707,-527.100,-530.823
-4.000,-2.075,-0.784,158.569,-627.502,-527.344
-4.000,-3.032,0.686,115.417,-736.145,-480.225
-4.000,-3.868,2.404,81.299,-813.843,-406.311
-3.826,-4.000,3.582,70.984,-834.290,-320.679
-3.984,-4.000,3.727,64.819,-801.758,-221.313
-4.000,-3.373,3.719,55.542,-778.442,-111.206
-4.000,-2.065,4.000,35.034,-826.904,-19.958
-4.000,-0.410,4.000,-19.653,-927.429,34.851
-3.547,1.483,4.000,-113.403,-992.859,57.617
-2.490,2.838,4.000,-219.299,-914.795,22.705
-1.407,2.384,4.000,-275.757,-657.227,-97.778
0.119,0.063,3.810,-235.779,-315.369,-292.236
1.769,-2.336,1.201,-69.641,-51.086,-452.881
2.843,-3.660,-0.133,141.296,66.223,-469.666
2.835,-3.856,0.016,288.452,59.326,-338.440
2.184,-2.718,1.050,311.462,-15.625,-131.958
1.498,-1.072,2.129,238.220,-88.440,55.359
0.794,0.414,2.870,129.272,-110.352,168.213
0.145,1.357,2.944,34.058,-75.989,197.327
-0.066,1.588,2.373,-43.091,-16.724,158.752
0.102,1.226,1.413,-103.210,31.921,90.637
0.344,0.613,0.474,-135.742,50.232,35.950
0.583,0.139,-0.120,-140.137,32.410,12.756
0.715,-0.122,-0.171,-116.943,-6.836,13.550
0.771,-0.101,0.203,-80.994,-43.945,27.710
0.751,0.093,0.673,-47.546,-60.730,42.603
0.663,0.283,1.022,-19.775,-52.307,49.011
0.578,0.439,1.174,1.587,-27.161,47.668
0.514,0.516,1.152,15.991,1.465,40.161
0.485,0.548,1.024,21.484,23.987,29.358
0.483,0.528,0.829,18.982,35.583,18.982
0.503,0.500,0.630,13.000,35.400,10.315
0.528,0.437,0.517,9.399,25.757,2.869
0.539,0.358,0.517,9.521,11.841,-4.211
0.571,0.273,0.562,11.841,0.488,-11.047
0.620,0.202,0.617,15.808,-5.920,-16.296
0.659,0.156,0.675,21.118,-8.118,-18.799
0.682,0.133,0.708,25.391,-6.897,-18.799
0.678,0.138,0.701,27.344,-3.540,-17.090
0.681,0.149,0.682,26.123,-0.610,-15.076
0.686,0.134,0.679,21.606,-0.610,-14.099
0.692,0.123,0.701,16.296,-3.235,-13.611
0.688,0.111,0.747,13.855,-6.470,-12.329
0.703,0.099,0.780,14.038,-7.385,-11.658
0.718,0.071,0.792,15.686,-5.798,-11.475
0.734,0.046,0.807,18.433,-2.075,-10.437
0.729,0.040,0.821,21.057,2.869,-7.874
0.730,0.048,0.787,21.118,9.094,-5.554
0.728,0.060,0.745,19.287,13.062,-2.563
0.716,0.086,0.713,16.907,13.672,1.160
0.705,0.120,0.686,14.832,13.245,3.906
0.691,0.148,0.650,12.817,12.390,4.639
0.680,0.174,0.614,10.986,10.376,3.723
0.679,0.169,0.606,8.972,6.348,0.549
0.702,0.126,0.645,9.277,1.587,-3.174
0.759,0.088,0.686,9.888,-1.099,-5.859
0.793,0.055,0.713,9.705,0.061,-5.798
0.800,0.029,0.713,9.705,4.517,-3.723
0.799,0.024,0.697,10.742,10.193,-0.366
0.779,0.015,0.658,12.512,15.869,3.967
0.755,0.032,0.643,15.930,19.409,8.606
0.728,0.049,0.641,21.179,21.362,11.414
0.709,0.055,0.622,25.330,22.644,12.146
0.693,0.084,0.575,27.649,23.315,10.864
0.705,0.123,0.530,29.846,22.217,7.568
0.713,0.141,0.523,32.532,19.409,3.601
0.705,0.120,0.543,32.715,16.174,-0.244
0.707,0.097,0.571,33.875,13.733,-3.235
0.731,0.097,0.603,40.649,13.550,-4.333
0.726,0.081,0.614,46.326,16.174,-5.188
0.711,0.060,0.560,47.241,19.653,-6.104
0.711,0.050,0.508,48.584,20.508,-6.470
0.711,0.025,0.465,49.377,17.639,-6.775
0.708,0.004,0.454,49.744,11.475,-6.714
0.644,-0.111,0.455,53.040,4.578,-6.165
0.655,-0.181,0.501,65.918,-1.953,-2.686
0.846,0.033,0.633,86.365,-5.737,3.906
0.837,-0.258,0.643,94.666,-2.625,7.690
0.875,0.185,0.815,83.496,0.732,21.729
0.811,0.273,0.905,72.571,6.836,19.958
0.732,0.139,0.850,59.998,21.362,8.362
0.755,0.008,0.708,49.988,33.997,3.113

0.336,1.017,-0.532,-10.193,14.160,36.743
0.364,1.040,-0.525,-11.169,7.812,30.457
0.359,0.962,-0.488,-18.311,4.211,21.851
0.398,0.866,-0.430,-20.935,1.343,14.282
0.424,0.767,-0.433,-26.001,-0.549,9.399
0.435,0.608,-0.461,-28.931,-3.296,8.484
0.494,0.535,-0.445,-21.790,-5.798,11.780
0.468,0.598,-0.315,-8.240,-5.798,18.372
0.449,0.637,-0.290,-0.549,0.000,21.851
0.458,0.593,-0.353,3.540,8.423,22.278
0.446,0.591,-0.405,8.179,15.442,24.048
0.391,0.663,-0.473,10.315,19.409,27.405
0.353,0.701,-0.509,8.118,18.372,27.771
0.335,0.713,-0.536,3.418,15.076,25.330
0.320,0.729,-0.558,-0.244,12.268,22.583
0.312,0.764,-0.551,-2.136,9.949,19.470
0.309,0.789,-0.547,-6.409,7.874,16.052
0.291,0.823,-0.524,-14.648,3.967,13.306
0.294,0.856,-0.499,-27.771,-0.671,10.376
0.288,0.863,-0.467,-42.786,-3.723,6.653
0.284,0.855,-0.460,-54.993,-4.211,3.540
0.282,0.858,-0.454,-64.392,-3.296,1.282
0.277,0.827,-0.464,-74.524,-2.991,0.183
0.257,0.776,-0.520,-87.341,-4.822,1.404
0.276,0.640,-0.552,-100.281,-9.460,5.493
0.315,0.676,-0.559,-103.577,-17.273,14.709
0.275,0.773,-0.565,-107.971,-23.315,24.475
0.231,0.864,-0.600,-117.249,-27.771,27.771
0.200,0.928,-0.659,-128.784,-32.776,23.682
0.210,0.890,-0.609,-138.062,-39.490,14.587
0.223,0.854,-0.528,-141.296,-42.847,5.249
0.256,0.741,-0.551,-136.963,-40.222,-2.197
0.300,0.689,-0.573,-125.244,-32.288,-4.517
0.305,0.665,-0.613,-105.286,-22.461,-4.883
0.311,0.689,-0.607,-80.750,-13.062,-5.066
0.324,0.714,-0.590,-62.195,-4.761,-6.531
0.335,0.691,-0.606,-53.040,2.747,-10.010
0.369,0.616,-0.637,-51.331,7.935,-12.390
0.410,0.563,-0.662,-52.490,9.644,-11.963
0.430,0.530,-0.687,-54.138,9.094,-8.789
0.427,0.522,-0.696,-57.007,7.019,-4.028
0.419,0.536,-0.681,-60.608,3.601,1.038
0.418,0.557,-0.646,-65.491,0.061,5.188
0.421,0.566,-0.629,-73.853,-2.197,8.301
0.428,0.556,-0.642,-84.961,-2.991,10.681
0.430,0.535,-0.680,-94.604,-3.052,12.573
0.432,0.521,-0.719,-100.464,-2.747,14.465
0.430,0.516,-0.750,-103.088,-2.197,16.479
0.430,0.518,-0.759,-103.027,-1.648,18.372
0.491,0.568,-0.721,-104.004,-0.244,20.874
0.425,0.548,-0.726,-112.854,4.211,22.461
0.412,0.530,-0.775,-129.395,12.207,24.536
0.370,0.497,-0.874,-145.630,21.606,28.137
0.301,0.440,-0.996,-161.438,29.724,32.654
0.206,0.362,-1.100,-172.974,36.804,39.917
0.183,0.373,-1.204,-184.387,45.715,49.683
0.094,0.369,-1.383,-199.524,58.838,59.814
0.019,0.352,-1.530,-212.708,73.853,68.970
-0.109,0.308,-1.761,-214.722,90.759,73.364
-0.315,0.296,-2.086,-210.876,108.826,72.144
-0.700,0.154,-2.477,-196.228,120.972,61.707
-0.913,0.185,-2.757,-165.649,121.216,48.584
-1.165,0.245,-3.118,-143.188,119.873,39.856
-1.481,0.337,-3.662,-121.338,121.887,34.912
-1.885,0.452,-4.000,-103.271,114.502,24.841
-2.364,0.534,-4.000,-87.646,80.627,0.122
-2.904,0.524,-4.000,-62.866,6.226,-44.434
-3.257,0.245,-4.000,-18.616,-108.704,-110.535
-3.575,-0.351,-4.000,53.406,-249.390,-188.049
-3.812,-1.052,-4.000,143.738,-386.597,-259.644
-3.923,-1.451,-4.000,237.915,-504.089,-312.683
-4.000,-1.649,-3.667,313.660,-605.225,-346.436
-4.000,-1.683,-2.571,351.196,-691.956,-368.408
-4.000,-2.023,-1.391,353.149,-765.625,-380.859
-4.000,-2.634,0.040,332.397,-827.759,-375.305
-4.000,-3.353,1.567,313.171,-868.896,-339.905
-4.000,-3.949,3.082,301.575,-876.099,-280.273
-4.000,-3.968,4.000,277.588,-849.976,-206.299
-4.000,-3.588,4.000,217.407,-807.922,-119.690
-4.000,-2.643,4.000,121.155,-817.017,-34.790
-4.000,-0.887,4.000,2.258,-907.410,41.321
-4.000,1.259,4.000,-109.009,-1017.334,88.440
-3.007,3.094,4.000,-147.888,-1008.057,55.664
-0.792,2.788,4.000,-139.160,-694.580,-105.164
0.847,-0.708,3.949,-102.112,-135.437,-367.798
2.808,-3.846,-0.915,31.311,231.384,-550.232
3.784,-4.000,-2.521,201.416,270.386,-501.953
2.722,-4.000,-0.615,311.218,113.708,-264.587
1.952,-3.115,1.606,342.590,-50.598,11.047
1.276,-0.411,3.246,268.311,-119.080,209.839
0.130,1.501,4.000,150.940,-76.233,287.598
-0.645,2.395,3.599,61.279,24.170,252.380
-0.458,2.106,2.105,-29.724,110.046,146.729
0.013,0.975,0.431,-138.062,136.108,45.227
0.395,-0.084,-0.706,-217.651,95.154,7.385
0.664,-0.545,-0.979,-224.487,15.991,26.978
0.782,-0.355,-0.557,-172.668,-54.749,66.650
0.699,0.067,0.183,-103.638,-88.440,90.942
0.581,0.412,0.793,-44.189,-78.735,87.280
0.503,0.595,1.082,-0.122,-40.100,64.758
0.457,0.696,1.071,27.771,2.808,38.513
0.478,0.673,0.851,35.217,33.020,16.846
0.543,0.564,0.661,22.827,41.809,3.113
0.582,0.461,0.543,3.357,32.104,-1.831
0.611,0.406,0.522,-12.329,13.672,-0.916
0.639,0.381,0.572,-17.883,-2.075,-1.038
0.641,0.343,0.632,-13.611,-8.118,-4.211
0.640,0.283,0.661,-2.747,-6.042,-10.132
0.662,0.225,0.654,12.878,-0.122,-19.287
0.687,0.175,0.648,29.297,6.042,-29.358
0.731,0.113,0.643,39.429,11.108,-36.865
0.788,0.010,0.659,39.490,13.611,-39.490
0.824,-0.071,0.668,31.616,12.695,-36.316
0.833,-0.111,0.680,21.973,8.484,-28.748
0.831,-0.110,0.732,11.658,2.014,-18.921
0.837,-0.115,0.786,1.831,-3.784,-9.705
0.852,-0.113,0.822,-5.432,-6.653,-2.502
0.864,-0.083,0.816,-8.179,-4.578,5.249
0.851,-0.048,0.778,-8.057,1.648,11.902
0.810,-0.017,0.736,-5.859,9.216,16.113
0.768,0.030,0.695,-0.732,15.015,17.517
0.740,0.103,0.644,5.127,19.287,16.846
0.725,0.150,0.588,7.446,21.240,14.099
0.707,0.161,0.553,6.226,21.545,10.376
0.699,0.169,0.507,3.906,21.484,7.019
0.699,0.187,0.467,1.770,20.569,4.639
0.698,0.176,0.468,-0.488,17.517,2.441
0.708,0.153,0.488,-2.319,13.184,0.061
0.729,0.112,0.514,-3.357,8.789,-1.404
0.760,0.102,0.549,-2.808,5.371,-1.648
0.780,0.100,0.551,-0.488,4.517,-1.953
0.784,0.093,0.545,2.563,5.859,-3.296
0.775,0.078,0.530,5.005,7.141,-5.005
0.768,0.052,0.521,6.409,7.629,-6.592
0.768,0.030,0.528,6.775,6.592,-7.935
0.801,0.008,0.547,6.287,5.188,-8.362
0.831,-0.003,0.577,6.714,4.578,-7.446
0.828,0.009,0.591,8.240,5.859,-5.127
0.822,0.019,0.585,7.751,7.751,-1.953
0.813,0.009,0.573,5.737,9.094,0.977
0.814,-0.006,0.564,5.615,9.827,3.357
0.828,-0.030,0.564,9.644,10.742,5.493
0.839,-0.040,0.565,16.296,13.489,7.629
0.833,-0.030,0.562,23.315,16.846,9.644
0.818,-0.020,0.548,29.358,20.325,10.986
0.811,-0.018,0.518,33.508,23.193,11.719
0.799,-0.021,0.491,36.255,25.146,13.123
0.771,-0.040,0.470,38.025,25.879,15.015
0.744,-0.033,0.461,41.809,26.123,16.113

0.107,-0.187,-1.398,19.226,-35.095,2.625
0.257,-0.137,-1.254,25.146,-50.171,-5.066
0.251,-0.129,-1.098,21.301,-62.988,-7.324
0.259,-0.133,-0.993,7.690,-67.505,-8.240
0.288,-0.137,-0.911,-0.610,-66.528,-8.911
0.314,-0.188,-0.852,-9.521,-63.110,-7.080
0.320,-0.216,-0.840,-18.982,-58.289,-2.991
0.280,-0.233,-0.933,-26.733,-53.589,3.235
0.271,-0.253,-1.082,-26.062,-51.697,7.568
0.282,-0.262,-1.131,-13.184,-54.077,10.071
0.307,-0.240,-1.003,5.737,-56.519,11.780
0.314,-0.234,-0.898,20.813,-53.772,12.756
0.330,-0.249,-0.897,27.466,-47.241,14.648
0.328,-0.224,-0.897,30.579,-42.725,18.311
0.313,-0.193,-0.859,31.677,-40.405,21.606
0.296,-0.173,-0.798,30.457,-38.269,23.315
0.309,-0.165,-0.670,26.306,-34.729,25.391
0.254,-0.171,-0.737,17.944,-29.358,28.931
0.251,-0.125,-0.718,7.019,-27.771,34.058
0.274,-0.038,-0.657,-3.723,-26.367,37.537
0.273,0.056,-0.627,-19.653,-21.606,36.804
-0.030,0.030,-0.418,-31.738,-12.024,32.410
0.228,0.001,-0.614,-30.762,5.249,26.550
0.430,-0.082,-0.710,-42.114,18.311,13.794
0.398,-0.164,-0.810,-58.899,27.466,2.441
0.275,-0.252,-0.853,-71.106,31.555,-3.723
0.184,-0.305,-0.928,-71.594,32.104,-3.601
0.165,-0.336,-0.996,-65.552,29.358,0.977
0.195,-0.306,-1.033,-59.937,23.254,6.287
0.228,-0.283,-1.028,-66.223,15.564,8.118
0.274,-0.270,-1.013,-79.163,6.958,8.057
0.311,-0.313,-1.030,-80.627,-0.549,9.583
0.322,-0.371,-1.063,-76.355,-6.836,13.000
0.317,-0.388,-1.043,-78.857,-11.353,17.700
0.320,-0.399,-1.052,-84.595,-13.672,20.203
0.367,-0.401,-1.045,-84.229,-14.221,19.043
0.454,-0.402,-0.996,-78.247,-12.573,16.052
0.532,-0.446,-1.011,-75.562,-7.446,15.564
0.541,-0.531,-0.999,-66.772,1.526,18.677
0.553,-0.524,-1.008,-52.185,12.695,23.926
0.597,-0.519,-1.201,-48.279,23.865,26.001
0.665,-0.683,-1.194,-60.486,27.100,23.437
0.722,-0.800,-1.211,-63.354,28.381,22.644
0.731,-0.790,-1.342,-62.683,30.823,28.076
0.728,-0.855,-1.504,-64.209,30.273,37.476
0.710,-0.958,-1.554,-59.021,23.987,47.119
0.689,-0.949,-1.573,-41.260,15.930,55.908
0.659,-0.915,-1.560,-20.447,7.935,61.707
0.710,-0.981,-1.533,-5.310,-1.770,65.125
0.791,-1.046,-1.508,-0.732,-12.024,72.144
0.842,-1.130,-1.508,-10.254,-20.874,87.463
0.834,-1.121,-1.524,-21.484,-27.283,109.680
0.796,-1.134,-1.502,-29.236,-33.020,132.080
0.800,-1.127,-1.526,-31.799,-38.513,151.367
0.827,-1.106,-1.681,-36.621,-45.288,162.903
0.843,-1.186,-1.858,-48.340,-58.105,165.222
0.820,-1.250,-1.873,-52.368,-79.102,166.504
0.841,-1.224,-1.682,-48.035,-102.051,172.729
0.826,-1.203,-1.445,-46.814,-118.835,185.120
0.758,-1.168,-1.290,-48.767,-125.977,201.843
0.686,-1.104,-1.225,-51.392,-127.563,220.398
0.594,-1.040,-1.207,-55.176,-127.686,237.000
0.530,-0.945,-1.122,-59.204,-131.226,253.662
0.467,-0.850,-0.994,-67.810,-137.451,270.691
0.397,-0.742,-0.998,-89.600,-142.456,288.696
0.282,-0.708,-1.148,-120.544,-146.545,306.580
0.203,-0.701,-1.048,-136.108,-155.884,321.472
0.131,-0.687,-0.941,-138.489,-167.236,334.534
0.131,-0.578,-0.839,-137.207,-175.171,350.586
-0.001,-0.582,-0.650,-129.089,-177.124,366.760
-0.065,-0.511,-0.545,-111.084,-171.936,383.057
-0.089,-0.339,-0.501,-88.928,-160.583,397.827
-0.121,-0.139,-0.492,-74.036,-146.057,406.860
-0.108,-0.012,-0.485,-75.745,-131.042,409.180
-0.070,0.093,-0.551,-91.736,-116.577,406.494
-0.214,0.111,-0.451,-115.356,-103.699,399.719
-0.289,0.143,-0.411,-148.621,-92.041,393.799
-0.385,0.257,-0.374,-173.035,-80.322,386.719
-0.438,0.397,-0.390,-155.273,-62.805,379.883
-0.348,0.455,-0.468,-151.672,-49.622,379.089
-0.333,0.630,-0.512,-164.917,-42.664,384.033
-0.359,0.792,-0.599,-187.378,-43.640,386.780
-0.406,0.897,-0.722,-207.825,-51.636,383.850
-0.421,0.947,-0.833,-225.952,-65.430,376.343
-0.369,0.888,-0.957,-245.056,-81.360,365.051
-0.297,0.812,-1.053,-248.596,-94.604,350.708
-0.264,0.899,-1.118,-238.708,-102.173,335.327
-0.265,1.034,-1.153,-231.262,-104.309,314.514
-0.271,1.180,-1.133,-238.647,-102.356,287.903
-0.353,1.261,-1.251,-261.414,-97.107,259.094
-0.351,1.328,-1.380,-260.681,-86.853,229.980
-0.258,1.328,-1.423,-254.639,-76.172,202.881
-0.160,1.243,-1.526,-250.366,-67.993,176.086
-0.124,1.143,-1.645,-233.337,-64.941,150.146
-0.106,1.175,-1.657,-197.510,-64.880,124.939
-0.111,1.218,-1.638,-163.269,-66.589,100.342
-0.102,1.228,-1.644,-139.038,-70.129,74.280
-0.087,1.177,-1.650,-123.474,-76.904,47.607
-0.038,1.047,-1.697,-103.333,-90.759,23.682
-0.033,0.951,-1.644,-81.421,-109.192,2.747
-0.009,0.855,-1.575,-65.735,-121.094,-16.541
-0.040,0.777,-1.512,-52.612,-126.953,-29.846
-0.106,0.734,-1.518,-35.889,-129.944,-40.771
-0.177,0.746,-1.527,-19.470,-139.282,-54.504
-0.259,0.765,-1.573,-9.521,-155.762,-70.435
-0.354,0.740,-1.624,-5.127,-178.284,-88.501
-0.449,0.683,-1.637,1.343,-207.642,-109.680
-0.533,0.595,-1.531,14.709,-241.943,-131.775
-0.645,0.449,-1.392,35.095,-274.597,-153.442
-0.776,0.249,-1.222,59.326,-305.664,-175.781
-0.926,0.087,-1.028,81.787,-338.135,-198.242
-1.089,-0.031,-0.826,99.121,-372.009,-221.619
-1.249,-0.237,-0.601,107.483,-407.654,-244.019
-1.423,-0.419,-0.352,102.295,-444.824,-253.967
-1.658,-0.625,-0.051,90.637,-481.262,-254.761
-1.895,-0.830,0.295,77.637,-514.038,-249.023
-1.937,-1.024,0.712,66.833,-541.077,-237.915
-1.861,-1.142,1.200,57.922,-555.603,-220.276
-1.751,-1.156,1.665,51.575,-549.500,-196.655
-1.658,-0.948,2.083,41.016,-519.104,-169.373
-1.567,-0.661,2.430,16.785,-471.985,-144.775
-1.375,-0.260,2.781,-23.804,-425.598,-123.718
-0.955,0.117,3.125,-81.665,-393.677,-106.384
-0.388,0.238,3.418,-148.132,-376.709,-96.130
0.145,0.208,3.470,-174.377,-356.567,-96.008
0.414,0.148,3.274,-133.911,-310.974,-104.858
0.682,-0.077,2.672,-83.008,-221.497,-122.559
0.928,-0.667,1.766,-58.716,-92.834,-140.015
1.080,-1.218,0.811,-25.330,16.968,-142.761
1.180,-1.455,0.287,35.156,60.547,-122.559
1.186,-1.367,0.245,93.994,51.514,-85.083
1.113,-1.057,0.576,133.362,22.583,-45.471
0.990,-0.673,1.010,150.024,-1.099,-11.475
0.868,-0.273,1.378,151.306,-7.996,16.541
0.700,0.154,1.662,137.695,1.343,38.025
0.537,0.474,1.727,112.854,23.682,44.983
0.449,0.534,1.525,76.172,49.072,36.438
0.455,0.400,1.129,30.273,66.833,20.752
0.541,0.129,0.742,-14.587,68.787,6.836
0.653,-0.124,0.435,-48.401,53.711,2.380
0.734,-0.288,0.289,-66.223,25.391,8.301
0.752,-0.337,0.328,-70.313,-7.141,19.226
0.733,-0.287,0.527,-65.735,-34.668,28.931
0.726,-0.218,0.730,-55.237,-48.645,33.142
0.732,-0.160,0.927,-41.016,-46.448,31.677
0.738,-0.095,1.048,-20.813,-31.006,26.245
0.707,-0.054,1.069,2.747,-7.263,18.677
0.674,-0.010,0.998,22.522,18.127,10.864
0.657,0.039,0.899,35.461,38.696,4.272

0.222,0.300,-1.074,178.833,20.325,-43.762
0.379,0.377,-0.756,186.096,16.541,-50.598
0.387,0.606,-0.636,174.988,15.320,-47.852
0.338,0.687,-0.598,138.306,15.686,-38.879
0.342,0.742,-0.713,103.638,16.907,-30.884
0.325,0.811,-0.829,87.341,21.057,-32.288
0.282,0.902,-0.808,82.397,22.705,-39.368
0.212,0.975,-0.728,74.219,22.461,-50.720
0.207,1.013,-0.774,64.331,26.001,-69.214
0.233,1.035,-0.932,52.979,27.649,-90.271
0.210,1.232,-0.979,40.466,20.203,-109.863
0.133,1.461,-0.935,34.485,11.536,-135.132
0.058,1.545,-0.970,37.781,11.780,-173.523
-0.004,1.501,-1.040,52.185,18.127,-220.032
0.001,1.301,-1.074,79.163,24.780,-266.602
0.084,0.990,-1.198,116.516,32.166,-306.458
0.202,0.731,-1.345,156.921,38.025,-331.909
0.294,0.569,-1.369,189.331,41.931,-340.759
0.359,0.491,-1.254,208.801,48.218,-338.013
0.392,0.505,-1.061,210.876,54.749,-332.581
0.428,0.452,-0.937,199.402,68.726,-330.627
0.472,0.395,-0.859,177.429,88.806,-333.557
0.468,0.304,-0.838,149.292,110.718,-338.867
0.468,0.180,-0.915,112.732,128.418,-343.933
0.462,0.022,-1.034,70.068,137.146,-346.497
0.425,-0.073,-1.144,28.381,136.230,-346.497
0.412,-0.241,-1.268,-11.169,129.456,-345.093
0.475,-0.500,-1.464,-48.889,120.300,-341.736
0.540,-0.808,-1.667,-81.482,107.056,-335.693
0.633,-1.121,-1.838,-107.605,88.074,-325.439
0.742,-1.376,-1.903,-126.160,66.345,-309.570
0.856,-1.457,-1.901,-134.216,47.729,-288.391
0.846,-1.904,-1.996,-136.169,35.339,-265.503
1.017,-1.788,-1.995,-117.493,25.208,-229.187
1.128,-1.617,-1.906,-87.341,17.273,-187.500
1.117,-1.583,-1.864,-69.580,12.207,-146.362
1.067,-1.460,-1.782,-57.800,7.141,-99.487
0.986,-1.261,-1.655,-46.814,1.282,-51.147
0.886,-1.073,-1.539,-41.626,-3.906,-10.742
0.797,-0.871,-1.487,-47.119,-10.437,21.057
0.733,-0.738,-1.448,-59.998,-21.118,46.082
0.681,-0.656,-1.401,-73.730,-36.316,64.453
0.675,-0.595,-1.336,-89.844,-53.955,82.214
0.480,-0.374,-1.242,-108.826,-70.618,103.027
0.441,-0.303,-1.226,-124.512,-79.895,115.723
0.393,-0.312,-1.197,-130.859,-83.557,118.286
0.305,-0.315,-1.146,-128.540,-87.280,117.859
0.253,-0.300,-1.044,-116.699,-91.309,114.807
0.201,-0.298,-0.937,-105.713,-93.262,111.145
0.199,-0.319,-0.813,-93.689,-92.590,107.666
0.220,-0.376,-0.707,-80.994,-89.478,104.614
0.255,-0.410,-0.599,-71.167,-85.327,106.201
0.286,-0.433,-0.507,-64.880,-79.895,112.793
0.303,-0.470,-0.446,-63.232,-73.303,123.108
0.283,-0.484,-0.429,-64.880,-66.895,137.756
0.225,-0.546,-0.458,-71.228,-62.927,154.053
0.188,-0.640,-0.509,-78.552,-63.171,171.143
0.142,-0.755,-0.531,-85.266,-67.444,190.369
0.067,-0.870,-0.539,-92.957,-74.402,215.210
-0.039,-0.964,-0.540,-103.699,-81.299,249.390
-0.203,-0.984,-0.524,-113.281,-86.792,296.143
-0.455,-0.919,-0.537,-121.948,-88.379,351.196
-0.777,-0.796,-0.579,-128.662,-86.914,404.663
-1.108,-0.615,-0.606,-131.714,-85.449,449.097
-1.376,-0.421,-0.649,-135.071,-83.679,482.117
-1.583,-0.202,-0.653,-138.428,-80.872,504.211
-1.715,-0.008,-0.643,-137.390,-74.707,518.188
-1.748,0.147,-0.591,-131.226,-63.171,523.315
-1.799,0.324,-0.680,-115.356,-45.837,520.142
-1.687,0.612,-0.443,-86.670,-32.104,501.953
-1.567,0.855,-0.304,-66.101,-11.780,474.792
-1.477,1.121,-0.277,-47.363,17.517,443.237
-1.300,1.421,-0.234,-22.400,44.556,402.710
-1.088,1.688,-0.228,2.686,69.092,352.234
-0.865,1.932,-0.328,23.499,89.783,296.082
-0.666,2.115,-0.507,37.415,100.159,241.089
-0.520,2.227,-0.740,40.283,95.703,190.308
-0.446,2.186,-0.980,29.785,77.881,141.479
-0.379,1.996,-1.154,17.700,51.270,91.675
-0.254,1.707,-1.187,13.672,22.522,39.917
-0.120,1.385,-1.071,20.325,-2.197,-9.155
0.008,1.099,-0.866,32.043,-19.470,-50.415
0.131,0.861,-0.663,38.147,-29.236,-78.979
0.228,0.696,-0.522,35.706,-33.325,-92.529
0.322,0.581,-0.399,28.381,-35.339,-94.971
0.378,0.493,-0.341,17.700,-34.485,-89.905
0.409,0.430,-0.338,7.141,-30.945,-80.872
0.416,0.401,-0.374,0.244,-26.428,-70.679
0.415,0.417,-0.387,-1.404,-21.545,-60.669
0.433,0.463,-0.387,2.075,-16.235,-52.246
0.464,0.497,-0.408,7.019,-8.911,-47.302
0.492,0.507,-0.458,12.817,-0.427,-44.739
0.510,0.485,-0.493,20.081,8.179,-43.701
0.528,0.447,-0.508,27.588,14.832,-42.358
0.553,0.433,-0.496,31.738,18.860,-38.818
0.579,0.437,-0.486,30.701,20.447,-33.569
0.585,0.461,-0.500,23.376,20.081,-27.527
0.560,0.497,-0.518,11.169,16.235,-20.752
0.534,0.546,-0.518,-1.160,10.254,-14.587
0.509,0.580,-0.512,-11.292,4.944,-12.512
0.492,0.604,-0.536,-18.127,3.296,-13.123
0.476,0.594,-0.563,-19.714,3.662,-15.808
0.492,0.593,-0.564,-14.832,4.883,-18.616
0.512,0.580,-0.567,-7.141,7.446,-20.996
0.512,0.542,-0.564,0.854,10.559,-22.461
0.519,0.508,-0.554,6.714,13.672,-21.240
0.518,0.498,-0.593,9.949,15.930,-17.639
0.545,0.470,-0.554,12.573,14.832,-15.747
0.555,0.429,-0.562,10.315,14.282,-11.841
0.577,0.435,-0.573,6.958,14.221,-6.042
0.570,0.457,-0.585,3.906,12.268,-0.549
0.553,0.490,-0.588,-0.061,8.789,5.493
0.540,0.531,-0.582,-4.211,4.272,11.292
0.514,0.569,-0.574,-8.057,0.793,15.564
0.476,0.602,-0.565,-9.399,-0.122,17.700
0.455,0.613,-0.543,-7.568,1.099,17.395
0.455,0.637,-0.533,-4.333,4.761,16.174
0.459,0.670,-0.553,-0.488,9.705,15.320
0.463,0.693,-0.582,2.563,13.428,13.977
0.467,0.717,-0.595,5.371,15.198,11.414
0.462,0.728,-0.609,5.920,15.320,7.202
0.473,0.727,-0.634,2.991,14.038,1.770
0.482,0.696,-0.642,-1.099,11.292,-3.845
0.492,0.666,-0.633,-3.540,8.057,-7.935
0.501,0.635,-0.625,-6.165,5.798,-10.742
0.508,0.612,-0.618,-9.583,4.761,-12.207
0.512,0.614,-0.627,-13.611,4.578,-11.963
0.523,0.622,-0.656,-20.020,3.967,-11.658
0.532,0.635,-0.693,-25.330,2.808,-12.329
0.528,0.620,-0.717,-27.466,0.305,-14.282
0.527,0.609,-0.713,-27.039,-2.808,-16.296
0.522,0.595,-0.695,-24.963,-5.005,-17.700
0.525,0.578,-0.672,-22.522,-5.432,-19.348
0.532,0.570,-0.658,-20.569,-4.517,-20.935
0.548,0.552,-0.675,-19.897,-3.174,-21.973
0.562,0.522,-0.700,-19.531,-2.502,-21.912
0.576,0.497,-0.721,-18.982,-3.296,-20.508
0.584,0.483,-0.732,-18.250,-5.066,-17.761
0.583,0.490,-0.729,-16.968,-7.019,-14.648
0.576,0.507,-0.720,-15.625,-8.850,-12.146
0.564,0.526,-0.708,-14.404,-10.376,-10.437
0.563,0.539,-0.698,-13.611,-11.841,-10.376
0.572,0.527,-0.687,-13.123,-13.000,-11.780
0.572,0.505,-0.689,-13.916,-14.160,-13.489
0.572,0.496,-0.670,-15.503,-15.869,-14.587
0.573,0.481,-0.650,-18.738,-18.188,-14.587
0.574,0.489,-0.660,-23.132,-19.714,-12.634
0.576,0.496,-0.684,-27.100,-21.240,-9.705
0.569,0.511,-0.698,-28.870,-23.743,-6.714

0.134,0.845,0.302,-103.333,-269.226,84.290
0.095,0.841,0.295,-107.361,-265.747,93.262
0.057,0.967,0.221,-100.159,-261.047,101.196
0.042,1.133,0.305,-82.397,-252.502,106.079
0.003,1.230,0.569,-63.110,-241.333,104.553
-0.051,1.306,0.739,-61.646,-225.403,100.830
-0.038,1.378,0.764,-72.449,-205.261,96.069
0.023,1.271,0.611,-83.130,-182.556,87.036
0.092,1.159,0.463,-84.595,-163.696,82.214
0.123,1.118,0.429,-82.153,-152.100,85.388
0.103,1.059,0.350,-87.646,-144.104,90.210
0.080,1.075,0.191,-101.196,-142.456,94.971
0.006,1.213,0.097,-118.958,-152.710,98.083
-0.059,1.287,0.130,-142.578,-173.279,94.604
-0.087,1.292,0.203,-165.161,-191.895,86.731
-0.146,1.239,0.282,-180.359,-200.623,80.078
-0.203,1.232,0.382,-182.251,-198.059,77.820
-0.209,1.310,0.494,-169.861,-184.265,78.369
-0.220,1.368,0.475,-156.372,-159.973,78.918
-0.323,1.432,0.331,-150.452,-132.385,80.383
-0.439,1.435,0.184,-150.452,-116.882,81.787
-0.487,1.517,0.073,-148.193,-109.558,82.520
-0.523,1.639,-0.021,-149.170,-107.117,80.017
-0.585,1.690,-0.120,-152.527,-105.530,72.510
-0.592,1.696,-0.208,-156.311,-105.103,62.012
-0.627,1.702,-0.238,-156.433,-104.553,51.941
-0.632,1.755,-0.272,-150.513,-100.220,40.466
-0.620,1.751,-0.331,-140.320,-91.614,25.696
-0.605,1.706,-0.395,-125.854,-80.444,8.362
-0.607,1.657,-0.468,-110.840,-69.092,-7.141
-0.609,1.655,-0.521,-98.328,-60.425,-18.677
-0.639,1.719,-0.586,-86.914,-56.213,-24.475
-0.685,1.818,-0.704,-79.468,-55.176,-25.085
-0.760,1.890,-0.814,-73.975,-57.068,-20.325
-0.950,2.062,-0.860,-64.392,-61.584,-9.033
-1.252,2.583,-0.920,-56.335,-63.904,13.123
-1.737,3.289,-1.074,-57.068,-62.622,36.011
-2.332,3.991,-1.335,-57.129,-64.514,31.433
-2.823,4.000,-1.563,-40.833,-73.364,-24.841
-3.106,4.000,-1.645,-1.648,-85.144,-140.686
-3.206,3.996,-1.594,50.598,-92.224,-298.950
-3.150,3.085,-1.563,103.088,-89.050,-461.060
-3.032,1.989,-1.569,148.499,-78.857,-593.384
-3.049,1.132,-1.464,185.425,-69.519,-687.378
-3.229,0.361,-1.382,186.218,-70.129,-759.583
-3.453,-0.567,-1.414,146.545,-95.703,-824.036
-3.553,-1.543,-1.355,90.698,-151.794,-874.390
-3.602,-2.394,-1.000,36.682,-228.882,-897.644
-3.582,-3.034,-0.449,-16.541,-310.425,-882.996
-3.609,-3.466,0.185,-79.773,-385.986,-825.989
-3.645,-3.673,1.048,-150.757,-452.637,-740.479
-3.647,-3.656,2.179,-226.074,-510.803,-646.790
-3.258,-3.807,3.821,-289.795,-554.504,-566.956
-2.405,-3.706,4.000,-313.599,-557.373,-510.132
-1.623,-3.714,4.000,-295.776,-472.229,-473.206
-0.884,-2.920,4.000,-237.854,-263.550,-421.204
-0.219,-1.695,3.066,-170.715,7.568,-340.393
0.454,-0.982,-0.431,-127.441,204.407,-290.466
1.198,-1.328,-2.900,-106.201,217.896,-313.232
1.567,-2.524,-2.294,-68.054,51.880,-370.544
1.953,-3.562,0.191,-12.817,-136.108,-389.893
2.297,-4.000,1.942,6.104,-185.303,-317.566
2.632,-3.787,2.446,12.756,-105.469,-155.151
2.012,-2.861,1.707,6.104,9.888,49.194
1.120,-1.618,0.713,-22.278,68.787,214.417
0.343,-0.390,0.313,-60.425,40.833,293.762
-0.140,0.476,0.353,-122.498,-26.184,292.358
-0.288,0.980,0.530,-179.504,-83.923,238.770
-0.231,1.113,0.683,-199.585,-110.474,156.250
-0.036,0.944,0.742,-178.101,-104.980,71.167
0.188,0.605,0.739,-127.014,-77.026,5.310
0.378,0.337,0.741,-64.453,-39.734,-30.701
0.485,0.177,0.748,-8.545,-6.775,-42.175
0.565,0.046,0.769,29.602,13.245,-41.565
0.635,-0.083,0.820,49.255,19.409,-39.917
0.703,-0.226,0.886,51.270,15.869,-39.124
0.769,-0.338,0.928,38.147,8.789,-35.339
0.802,-0.407,0.911,18.311,2.563,-26.306
0.811,-0.435,0.846,-0.305,-0.610,-13.245
0.758,-0.399,0.793,-10.681,-0.793,-0.488
0.675,-0.295,0.733,-15.076,2.014,8.850
0.612,-0.246,0.622,-17.273,6.714,9.338
0.616,-0.258,0.535,-15.625,9.338,0.244
0.641,-0.344,0.490,-9.766,9.399,-13.000
0.698,-0.463,0.456,-6.653,8.606,-24.109
0.751,-0.551,0.461,-3.723,6.836,-28.442
0.780,-0.578,0.503,-2.808,3.662,-24.231
0.795,-0.594,0.534,-4.822,0.671,-13.550
0.807,-0.601,0.570,-5.920,-1.526,-2.380
0.800,-0.570,0.587,-3.967,-2.075,8.789
0.778,-0.500,0.580,-2.136,-0.732,20.203
0.725,-0.420,0.611,0.366,-0.122,28.931
0.671,-0.327,0.656,1.465,0.427,32.654
0.632,-0.259,0.668,0.061,1.648,32.043
0.614,-0.204,0.682,-0.854,2.502,28.198
0.603,-0.172,0.685,-0.977,3.479,22.095
0.612,-0.165,0.671,-1.953,4.761,15.137
0.634,-0.183,0.643,-1.892,6.409,7.874
0.670,-0.215,0.611,-0.732,7.874,1.587
0.700,-0.245,0.582,1.404,9.827,-2.625
0.722,-0.269,0.571,3.784,10.559,-4.150
0.729,-0.280,0.570,4.578,9.949,-4.089
0.726,-0.289,0.579,4.578,8.606,-3.052
0.724,-0.306,0.601,5.188,7.568,-2.869
0.724,-0.304,0.625,5.249,7.141,-3.723
0.731,-0.300,0.636,3.601,6.531,-4.639
0.735,-0.298,0.661,0.977,4.639,-5.066
0.730,-0.297,0.676,-1.587,2.991,-5.188
0.723,-0.305,0.662,-4.761,2.625,-5.127
0.727,-0.312,0.646,-7.446,2.075,-5.005
0.740,-0.326,0.632,-8.301,2.136,-4.822
0.746,-0.330,0.603,-8.545,3.235,-3.906
0.746,-0.344,0.574,-9.155,4.150,-2.441
0.752,-0.352,0.579,-9.338,3.357,-1.282
0.752,-0.342,0.601,-9.644,3.418,0.366
0.749,-0.341,0.601,-11.780,3.906,2.258
0.740,-0.333,0.603,-13.794,3.662,4.272
0.735,-0.326,0.599,-13.794,3.662,6.287
0.749,-0.320,0.580,-12.268,5.066,7.263
0.753,-0.307,0.568,-8.545,7.263,8.423
0.745,-0.289,0.542,-5.371,9.399,10.132
0.746,-0.265,0.529,-3.540,10.315,11.292
0.738,-0.246,0.540,-2.075,9.521,11.841
0.733,-0.236,0.552,-1.282,8.301,11.353
0.725,-0.231,0.550,-2.258,7.141,9.216
0.726,-0.235,0.543,-3.723,6.165,6.348
0.728,-0.235,0.549,-5.188,4.272,3.296
0.734,-0.248,0.567,-6.592,2.075,0.244
0.755,-0.287,0.587,-7.202,0.732,-1.709
0.786,-0.331,0.609,-5.310,1.465,-1.526
0.809,-0.349,0.617,-1.282,4.456,1.282
0.824,-0.337,0.595,3.479,9.277,6.409
0.809,-0.308,0.556,7.202,13.489,12.756
0.784,-0.268,0.513,8.118,14.954,17.334
0.761,-0.253,0.515,7.324,12.512,19.348
0.740,-0.246,0.552,7.324,9.033,19.409
0.730,-0.265,0.555,7.446,7.874,18.555
0.753,-0.326,0.552,10.315,8.606,17.822
0.774,-0.375,0.574,19.531,10.925,18.921
0.775,-0.420,0.594,32.410,16.846,22.766
0.802,-0.429,0.625,47.668,25.940,28.320
0.798,-0.412,0.622,60.242,35.828,33.508
0.785,-0.428,0.581,63.416,41.321,36.499
0.792,-0.497,0.563,60.425,39.246,37.537
0.820,-0.584,0.589,57.739,34.119,37.781
0.821,-0.692,0.612,56.946,32.776,40.161
0.851,-0.768,0.638,62.195,36.377,46.387
0.867,-0.814,0.668,73.792,43.579,56.641
0.876,-0.832,0.658,88.257,55.298,70.068

0.260,1.207,-0.648,-59.326,-57.617,109.497
0.356,1.229,-0.428,-45.410,-53.772,102.722
0.371,1.266,-0.440,-36.194,-47.180,97.168
0.364,1.229,-0.471,-36.987,-40.588,94.360
0.347,1.217,-0.488,-37.109,-38.513,97.107
0.320,1.275,-0.454,-37.964,-38.269,104.248
0.262,1.392,-0.420,-39.612,-35.706,113.037
0.177,1.462,-0.440,-39.734,-30.640,117.615
0.136,1.586,-0.389,-34.912,-25.208,118.713
0.059,1.723,-0.364,-29.785,-17.700,117.554
-0.000,1.813,-0.388,-29.236,-9.033,112.732
-0.090,1.904,-0.414,-29.968,-1.160,106.812
-0.177,2.114,-0.405,-26.123,8.728,103.271
-0.344,2.478,-0.476,-28.931,21.912,101.929
-0.474,2.904,-0.675,-35.461,35.889,97.473
-0.581,3.287,-0.865,-33.386,44.861,83.923
-0.802,3.443,-1.093,-25.452,50.659,61.279
-1.110,3.594,-1.241,-13.062,53.101,38.574
-1.411,3.929,-1.299,4.822,51.636,20.569
-1.543,4.000,-1.342,15.930,44.800,-2.808
-1.535,4.000,-1.582,20.691,35.339,-42.114
-1.562,4.000,-1.800,19.653,23.071,-97.778
-1.653,3.970,-1.940,18.250,6.042,-159.424
-1.593,3.481,-2.046,28.564,-6.348,-217.102
-1.458,3.217,-2.081,52.795,-8.301,-270.508
-1.539,2.798,-2.131,87.402,-2.441,-326.782
-1.556,2.535,-2.096,136.536,5.920,-383.728
-1.570,2.166,-2.036,183.655,13.000,-441.528
-1.687,1.715,-1.866,220.276,13.123,-498.657
-1.833,1.331,-1.578,238.342,5.005,-548.828
-2.010,0.842,-1.391,217.407,-11.292,-596.985
-2.148,0.149,-1.249,165.894,-43.274,-642.395
-2.231,-0.607,-1.106,112.793,-91.370,-677.673
-2.262,-1.339,-0.961,72.754,-144.592,-692.505
-2.295,-2.000,-0.802,43.823,-192.322,-680.420
-2.280,-2.641,-0.783,18.921,-232.361,-638.367
-2.394,-2.951,-0.648,3.540,-268.555,-565.308
-2.860,-2.893,-0.298,-7.629,-300.842,-479.309
-3.466,-2.714,0.287,-45.105,-331.238,-411.926
-3.913,-2.499,1.146,-110.352,-366.150,-389.648
-3.812,-2.541,2.403,-190.247,-410.706,-414.978
-2.992,-2.898,3.955,-274.109,-460.754,-465.759
-1.798,-3.501,4.000,-338.684,-487.854,-502.136
-0.607,-3.760,4.000,-355.164,-425.781,-486.450
0.120,-3.217,4.000,-288.208,-243.164,-402.405
0.681,-2.034,1.970,-158.203,-6.226,-265.808
1.085,-1.045,-0.808,-41.687,186.340,-146.729
1.438,-0.744,-2.789,31.616,249.573,-105.103
1.347,-1.268,-2.585,110.962,155.090,-134.094
1.282,-1.824,-0.363,184.814,-10.437,-163.940
1.344,-2.122,1.533,184.387,-97.473,-135.742
1.210,-1.974,2.318,148.193,-73.486,-57.434
0.910,-1.387,2.086,113.464,-0.305,36.926
0.602,-0.757,1.298,71.228,54.077,105.957
0.405,-0.249,0.665,24.475,52.063,128.113
0.317,0.092,0.490,-24.109,7.385,115.845
0.303,0.242,0.532,-72.205,-39.917,89.111
0.357,0.245,0.568,-104.980,-67.200,58.716
0.457,0.182,0.548,-109.680,-72.632,29.297
0.561,0.022,0.480,-93.323,-64.331,4.761
0.671,-0.175,0.465,-66.101,-52.429,-10.864
0.746,-0.342,0.539,-33.447,-41.992,-16.663
0.778,-0.450,0.639,-9.216,-33.386,-11.475
0.802,-0.481,0.748,1.770,-27.466,1.465
0.765,-0.443,0.854,5.859,-24.719,18.005
0.711,-0.391,0.936,3.662,-23.743,31.677
0.652,-0.329,0.953,-5.066,-22.522,39.551
0.595,-0.276,0.917,-16.968,-22.705,40.283
0.554,-0.221,0.866,-26.489,-24.353,35.828
0.526,-0.187,0.835,-28.015,-24.231,29.236
0.521,-0.155,0.796,-21.057,-19.653,20.569
0.537,-0.152,0.742,-8.606,-10.925,10.132
0.562,-0.191,0.724,6.409,-2.197,-1.465
0.587,-0.268,0.707,18.555,4.822,-11.658
0.648,-0.364,0.677,24.170,8.972,-18.494
0.698,-0.438,0.667,26.855,9.399,-20.142
0.719,-0.494,0.651,26.367,7.751,-16.968
0.736,-0.536,0.635,22.217,5.127,-11.597
0.746,-0.550,0.665,17.517,1.770,-6.592
0.725,-0.531,0.686,11.108,-1.099,-3.113
0.710,-0.504,0.687,3.235,-3.723,1.770
0.703,-0.483,0.703,-2.686,-7.141,6.531
0.681,-0.458,0.728,-6.042,-9.216,9.888
0.660,-0.404,0.731,-7.935,-8.850,13.245
0.641,-0.346,0.731,-8.484,-6.775,16.479
0.628,-0.283,0.716,-7.874,-4.761,17.822
0.610,-0.257,0.695,-7.446,-3.479,16.785
0.605,-0.253,0.703,-6.165,-4.028,13.794
0.607,-0.250,0.729,-3.418,-3.906,9.888
0.618,-0.252,0.742,-0.488,-1.648,6.165
0.628,-0.268,0.731,2.380,2.625,2.319
0.634,-0.273,0.706,4.456,6.897,-0.610
0.634,-0.286,0.685,5.859,9.460,-2.136
0.633,-0.304,0.664,4.883,9.888,-2.991
0.642,-0.331,0.660,3.540,8.850,-3.723
0.661,-0.369,0.667,3.113,7.568,-4.333
0.683,-0.385,0.668,3.174,7.751,-3.845
0.696,-0.394,0.645,2.930,9.460,-1.953
0.707,-0.391,0.618,2.380,10.254,0.610
0.708,-0.394,0.605,1.709,9.216,2.319
0.702,-0.391,0.608,0.366,6.531,4.089
0.687,-0.391,0.626,-1.099,4.272,6.348
0.678,-0.377,0.630,-2.014,3.845,8.423
0.679,-0.360,0.637,-1.404,5.188,9.888
0.679,-0.340,0.638,1.648,7.324,10.620
0.681,-0.316,0.645,4.578,9.827,10.376
0.665,-0.304,0.637,5.859,11.841,9.460
0.659,-0.308,0.621,4.456,11.902,7.751
0.658,-0.324,0.612,1.526,9.460,4.517
0.670,-0.350,0.608,-1.404,6.836,1.343
0.695,-0.365,0.589,-3.540,5.371,-0.488
0.714,-0.389,0.571,-4.333,4.456,-0.854
0.725,-0.404,0.572,-2.930,4.211,0.488
0.718,-0.406,0.576,-0.122,5.310,3.235
0.703,-0.399,0.580,1.892,7.446,6.470
0.693,-0.376,0.584,3.174,9.521,9.521
0.687,-0.347,0.582,3.296,10.803,10.986
0.686,-0.326,0.573,2.014,10.681,10.742
0.688,-0.335,0.544,0.244,9.399,10.010
0.708,-0.359,0.531,-0.732,7.446,10.132
0.732,-0.379,0.548,0.854,5.798,11.414
0.740,-0.391,0.555,4.761,6.653,14.282
0.740,-0.402,0.556,8.728,9.216,17.944
0.735,-0.406,0.558,13.367,11.780,21.301
0.735,-0.404,0.563,17.700,13.855,24.231
0.735,-0.391,0.571,20.264,15.076,26.672
0.729,-0.374,0.581,20.508,15.442,28.259
0.727,-0.361,0.589,19.531,14.832,29.114
0.725,-0.359,0.579,18.494,14.160,28.992
0.729,-0.359,0.569,18.738,13.550,28.809
0.721,-0.373,0.560,21.606,13.611,28.381
0.716,-0.388,0.543,26.733,14.893,28.687
0.716,-0.413,0.552,33.447,17.212,30.396
0.729,-0.443,0.562,41.199,20.508,33.325
0.746,-0.461,0.523,46.936,24.597,36.865
0.775,-0.482,0.481,50.903,25.635,41.870
0.800,-0.508,0.479,55.359,23.193,48.706
0.809,-0.514,0.502,62.134,20.630,58.228
0.794,-0.509,0.491,71.899,21.667,69.824
0.786,-0.522,0.474,85.205,26.306,81.787
0.774,-0.544,0.533,105.774,34.119,92.773
0.769,-0.558,0.588,130.066,47.058,102.783
0.778,-0.564,0.587,149.109,63.477,112.549
0.760,-0.544,0.569,162.292,77.515,121.582
0.742,-0.479,0.550,172.302,86.731,129.517
0.737,-0.416,0.536,176.331,91.858,134.705
0.745,-0.376,0.504,174.133,94.238,136.414
0.743,-0.354,0.462,168.152,94.666,136.108
0.761,-0.322,0.414,159.241,92.651,135.315

-0.317,-1.839,-1.385,62.622,25.024,-156.982
-0.262,-1.988,-1.319,84.534,9.460,-148.499
-0.142,-2.083,-1.084,112.366,-6.958,-135.986
-0.139,-2.272,-0.781,117.737,-20.264,-111.206
-0.247,-2.461,-0.526,94.727,-23.926,-77.148
-0.349,-2.764,-0.476,56.396,-15.137,-46.997
-0.416,-3.252,-0.529,28.198,-7.385,-25.085
-0.484,-3.926,-0.497,15.015,-7.568,1.343
-0.452,-4.000,-0.227,15.503,-14.526,46.265
-0.406,-4.000,0.195,25.208,-15.076,109.863
-0.445,-4.000,0.484,22.766,-1.465,189.026
-0.612,-4.000,0.511,-4.822,19.836,275.513
-0.886,-4.000,0.375,-56.335,37.537,355.713
-1.207,-3.987,0.074,-121.277,52.246,416.748
-1.454,-3.717,-0.317,-180.237,67.566,459.595
-1.592,-3.477,-0.700,-205.383,84.290,487.488
-1.643,-3.138,-0.983,-180.359,108.093,505.188
-1.665,-2.725,-1.027,-129.272,139.404,516.235
-1.683,-2.305,-1.073,-87.585,177.368,523.499
-1.732,-1.988,-1.178,-61.157,211.609,531.433
-1.786,-1.576,-1.234,-33.875,227.234,541.138
-1.895,-1.203,-1.301,-24.475,219.421,553.345
-2.121,-0.882,-1.229,-34.485,189.392,568.481
-2.463,-0.542,-1.039,-60.242,153.137,583.374
-2.839,-0.245,-1.068,-109.924,134.888,590.271
-3.198,0.022,-1.241,-164.001,134.216,582.336
-3.477,0.240,-1.536,-212.158,140.930,564.087
-3.652,0.411,-1.902,-252.991,148.804,540.833
-3.672,0.472,-2.200,-273.560,152.832,511.719
-3.512,0.443,-2.444,-263.672,153.564,476.318
-3.144,0.438,-2.633,-216.064,153.748,441.895
-2.577,0.539,-2.723,-118.103,154.053,416.626
-1.938,0.709,-2.566,33.813,151.489,400.757
-1.428,1.066,-2.092,219.055,137.939,397.522
-0.875,1.547,-1.217,392.395,106.750,403.687
-0.337,2.198,-0.443,512.634,84.778,403.992
0.007,2.747,0.057,558.289,71.960,379.333
-0.193,2.892,0.383,547.180,55.908,343.018
-0.632,2.722,0.591,476.135,36.377,305.603
-0.753,2.438,0.484,353.210,31.250,244.629
-0.661,2.078,0.098,205.688,36.011,156.860
-0.458,1.744,-0.285,59.265,22.705,71.289
-0.205,1.390,-0.505,-67.566,-13.855,3.845
0.035,1.050,-0.588,-163.635,-57.251,-44.067
0.226,0.712,-0.602,-225.769,-91.187,-72.571
0.381,0.445,-0.646,-251.892,-106.567,-84.167
0.496,0.254,-0.715,-242.126,-107.605,-84.961
0.590,0.079,-0.710,-206.665,-104.248,-76.721
0.625,-0.032,-0.610,-155.884,-94.604,-59.753
0.633,-0.055,-0.534,-108.215,-76.294,-36.499
0.610,-0.022,-0.543,-72.998,-53.040,-12.390
0.540,0.042,-0.591,-44.250,-31.372,5.371
0.482,0.123,-0.633,-18.982,-14.893,14.526
0.479,0.199,-0.636,1.038,-4.822,14.099
0.498,0.263,-0.637,15.564,2.808,8.911
0.541,0.304,-0.627,24.414,7.629,5.066
0.587,0.331,-0.621,31.799,10.864,4.578
0.608,0.346,-0.631,37.109,14.404,6.775
0.603,0.369,-0.643,39.551,15.808,10.681
0.580,0.414,-0.635,36.865,14.221,14.954
0.528,0.466,-0.640,28.442,10.376,17.639
0.471,0.516,-0.639,15.259,5.249,16.846
0.417,0.570,-0.639,1.282,-0.305,11.475
0.376,0.578,-0.672,-13.428,-5.066,1.221
0.362,0.555,-0.694,-25.391,-10.376,-11.841
0.387,0.494,-0.692,-31.372,-15.259,-26.794
0.434,0.425,-0.695,-31.799,-16.907,-40.527
0.508,0.314,-0.737,-28.809,-15.015,-49.683
0.584,0.194,-0.795,-23.682,-12.146,-52.002
0.646,0.108,-0.829,-15.442,-10.498,-47.485
0.685,0.065,-0.833,-5.005,-9.583,-37.842
0.698,0.038,-0.839,5.432,-7.507,-26.367
0.696,0.047,-0.824,15.930,-5.493,-15.137
0.679,0.078,-0.788,25.024,-4.517,-4.822
0.643,0.137,-0.738,30.762,-4.578,5.310
0.597,0.205,-0.681,32.532,-5.493,13.184
0.570,0.277,-0.622,30.273,-6.287,16.418
0.558,0.315,-0.585,25.513,-5.676,15.381
0.552,0.321,-0.569,18.188,-4.272,11.658
0.561,0.304,-0.551,10.620,-2.686,8.545
0.577,0.291,-0.517,3.540,-0.183,6.531
0.596,0.280,-0.530,-4.517,4.761,6.104
0.598,0.279,-0.595,-13.977,11.230,7.751
0.591,0.286,-0.699,-21.667,15.625,10.681
0.577,0.305,-0.794,-25.269,16.296,12.695
0.560,0.320,-0.849,-24.048,13.489,13.550
0.549,0.345,-0.865,-20.081,9.644,13.245
0.541,0.375,-0.857,-15.564,6.958,10.986
0.539,0.400,-0.852,-10.132,5.920,7.507
0.538,0.413,-0.845,-4.333,5.737,3.418
0.541,0.419,-0.830,1.282,5.371,-0.427
0.540,0.420,-0.802,5.493,4.700,-3.113
0.539,0.414,-0.779,7.812,3.967,-4.883
0.542,0.404,-0.751,7.812,2.747,-6.531
0.540,0.394,-0.736,6.348,1.404,-8.240
0.542,0.381,-0.731,2.808,-0.244,-9.827
0.543,0.366,-0.731,0.244,-1.770,-11.536
0.551,0.338,-0.730,-1.465,-2.991,-13.672
0.567,0.311,-0.718,-1.526,-3.601,-15.259
0.589,0.290,-0.706,-0.977,-3.540,-15.381
0.604,0.279,-0.689,-0.244,-3.662,-13.245
0.610,0.282,-0.678,-0.549,-3.479,-9.644
0.608,0.297,-0.685,-1.831,-3.052,-5.432
0.608,0.314,-0.693,-4.150,-3.296,-1.831
0.607,0.325,-0.699,-7.019,-4.028,0.732
0.595,0.330,-0.698,-9.521,-4.883,2.319
0.573,0.345,-0.679,-10.803,-5.798,3.418
0.553,0.373,-0.663,-11.841,-5.920,3.784
0.533,0.405,-0.662,-13.733,-5.127,2.808
0.524,0.439,-0.670,-17.517,-4.578,0.610
0.519,0.468,-0.684,-21.362,-4.700,-2.380
0.514,0.477,-0.708,-24.231,-5.066,-5.676
0.515,0.463,-0.737,-24.597,-5.981,-10.315
0.505,0.386,-0.729,-23.132,-6.775,-15.686
0.534,0.403,-0.743,-19.165,-5.615,-19.226
0.551,0.385,-0.754,-14.954,-3.052,-22.095
0.555,0.369,-0.760,-10.254,-0.244,-24.841
0.570,0.358,-0.770,-4.578,1.953,-25.391
0.591,0.356,-0.782,-1.282,2.747,-24.170
0.598,0.359,-0.786,-0.244,0.916,-21.545
0.575,0.365,-0.780,1.587,-2.747,-18.433
0.540,0.378,-0.762,1.526,-5.920,-15.747
0.504,0.400,-0.762,-0.488,-7.935,-13.977
0.500,0.422,-0.769,-2.930,-9.583,-14.832
0.475,0.432,-0.766,-5.127,-10.986,-18.921
0.456,0.426,-0.797,-5.432,-12.329,-24.902
0.468,0.400,-0.802,-5.981,-14.893,-30.640
0.484,0.378,-0.795,-6.287,-18.982,-35.278
0.484,0.350,-0.785,-6.287,-22.949,-37.842
0.478,0.332,-0.779,-5.920,-26.794,-38.513
0.480,0.333,-0.776,-5.249,-30.396,-37.292
0.492,0.335,-0.760,-4.639,-33.325,-36.865
0.493,0.332,-0.719,-3.967,-35.400,-38.086
0.500,0.338,-0.681,-6.104,-35.767,-41.016
0.513,0.301,-0.641,-11.475,-33.875,-44.556
0.537,0.222,-0.678,-21.912,-30.701,-46.814
0.592,0.137,-0.802,-35.583,-27.832,-43.884
0.630,0.054,-0.925,-46.509,-30.396,-36.011
0.635,0.036,-0.972,-51.086,-39.856,-23.193
0.596,0.061,-1.010,-45.593,-50.598,-9.521
0.564,0.125,-0.996,-34.180,-58.105,0.305
0.534,0.165,-0.930,-19.714,-59.937,4.639
0.494,0.169,-0.846,-3.601,-55.542,3.967
0.458,0.152,-0.789,11.169,-45.898,0.977
0.450,0.180,-0.754,23.376,-33.813,-1.953
0.458,0.216,-0.772,32.715,-21.912,-5.859
0.497,0.244,-0.815,39.673,-13.977,-12.329
0.568,0.230,-0.857,43.945,-12.756,-20.752
0.639,0.202,-0.885,45.227,-19.470,-28.442

-0.775,-0.779,1.070,-46.997,-23.437,11.536
-0.790,-0.761,1.127,-59.143,-20.447,13.672
-0.856,-0.723,1.104,-67.139,-10.498,15.564
-0.948,-0.725,1.099,-66.833,3.113,16.357
-1.027,-0.663,1.136,-58.350,16.663,17.029
-1.166,-0.631,1.245,-48.828,29.602,17.029
-1.329,-0.620,1.274,-43.823,41.138,18.127
-1.542,-0.554,1.334,-40.466,46.143,20.020
-1.822,-0.425,1.586,-38.025,39.551,17.639
-2.110,-0.258,2.133,-40.588,29.419,5.920
-2.410,-0.182,2.768,-48.767,32.593,-15.625
-2.671,-0.343,3.187,-55.481,61.157,-41.016
-2.867,-0.587,3.536,-45.227,113.464,-60.364
-3.021,-0.808,3.859,-17.700,186.768,-70.984
-3.150,-0.990,3.990,3.357,272.278,-76.782
-3.274,-1.175,3.819,-1.770,355.896,-85.632
-3.299,-1.441,3.457,-34.485,422.363,-103.699
-3.249,-1.838,2.967,-81.055,468.628,-129.517
-3.041,-2.219,2.480,-137.573,495.972,-153.992
-2.839,-2.515,1.996,-174.988,519.775,-169.006
-2.654,-2.595,1.550,-185.059,547.180,-171.082
-2.540,-2.506,1.157,-175.110,580.322,-166.748
-2.478,-2.386,0.776,-162.292,619.568,-157.227
-2.448,-2.317,0.172,-157.837,660.156,-142.700
-2.399,-2.454,-0.625,-158.569,691.223,-123.779
-2.232,-2.416,-1.220,-150.696,696.960,-95.154
-2.145,-2.182,-1.423,-122.314,678.528,-57.678
-2.175,-1.984,-1.424,-96.375,655.457,-18.372
-2.292,-1.724,-1.381,-79.285,643.433,13.916
-2.449,-1.533,-1.368,-64.087,645.935,31.189
-2.636,-1.453,-1.448,-53.711,658.081,33.875
-2.831,-1.536,-1.692,-46.265,670.593,30.029
-2.954,-1.724,-2.175,-49.255,671.936,27.771
-2.843,-2.012,-2.823,-84.595,645.935,30.457
-2.404,-2.064,-3.184,-142.273,573.364,34.607
-1.762,-1.888,-3.103,-196.777,461.792,35.645
-1.082,-1.680,-2.859,-237.366,356.445,39.429
-0.344,-1.299,-2.677,-235.901,302.307,57.373
0.290,-0.623,-2.667,-163.940,318.176,102.173
0.569,0.317,-3.079,-70.374,386.963,182.373
0.664,1.396,-3.845,18.860,447.327,259.399
0.459,1.718,-4.000,106.140,445.374,271.973
0.160,1.594,-4.000,200.317,373.352,228.882
0.095,1.379,-2.955,283.569,256.836,159.912
0.159,1.014,-1.497,301.819,140.076,80.505
0.301,0.576,-0.447,236.816,56.763,10.193
0.489,0.231,-0.043,119.690,11.169,-30.151
0.582,-0.036,-0.034,4.211,-14.709,-38.147
0.637,-0.159,0.021,-70.251,-36.682,-27.283
0.656,-0.155,0.180,-101.440,-46.143,-14.282
0.647,-0.100,0.182,-113.281,-34.851,-5.310
0.677,-0.047,-0.018,-115.234,-11.658,2.991
0.682,0.012,-0.227,-102.661,10.498,9.888
0.682,0.073,-0.389,-81.665,28.320,15.015
0.703,0.073,-0.516,-61.951,41.809,16.968
0.746,0.013,-0.616,-44.006,51.819,14.709
0.812,-0.049,-0.680,-27.710,59.509,13.672
0.864,-0.099,-0.721,-13.733,65.613,18.188
0.976,-0.192,-0.747,-0.854,69.397,27.283
0.856,-0.199,-0.755,14.465,73.303,39.917
0.869,-0.026,-0.763,25.635,75.623,56.152
0.834,0.007,-0.761,23.865,68.115,65.674
0.757,0.097,-0.753,18.738,56.213,72.815
0.679,0.195,-0.709,9.888,41.809,74.646
0.596,0.297,-0.639,-1.770,25.818,67.810
0.557,0.367,-0.580,-19.836,9.094,53.406
0.539,0.373,-0.562,-41.443,-5.920,32.043
0.568,0.318,-0.593,-62.256,-18.188,8.667
0.644,0.210,-0.621,-76.172,-28.870,-11.169
0.704,0.056,-0.635,-79.041,-35.828,-25.879
0.775,-0.099,-0.605,-72.266,-36.682,-32.776
0.826,-0.241,-0.555,-56.946,-30.640,-31.250
0.870,-0.308,-0.495,-35.706,-18.433,-22.400
0.899,-0.320,-0.471,-15.259,-3.540,-8.606
0.880,-0.312,-0.490,1.831,12.451,5.615
0.845,-0.248,-0.538,12.207,25.452,18.188
0.816,-0.165,-0.558,17.273,31.616,27.588
0.781,-0.066,-0.539,19.470,31.860,32.288
0.741,0.015,-0.558,14.587,30.273,32.898
0.715,0.074,-0.598,4.761,27.344,30.884
0.703,0.113,-0.623,-3.296,22.278,24.963
0.707,0.083,-0.638,-10.193,15.686,15.869
0.742,0.034,-0.615,-16.907,7.385,6.958
0.769,-0.036,-0.617,-25.696,-0.732,0.977
0.789,-0.111,-0.644,-34.912,-7.141,-0.732
0.822,-0.141,-0.631,-38.086,-11.414,0.610
0.848,-0.151,-0.585,-35.950,-11.902,2.197
0.863,-0.164,-0.539,-32.288,-7.690,3.357
0.857,-0.157,-0.554,-30.579,0.061,6.226
0.840,-0.143,-0.617,-30.762,8.423,10.620
0.811,-0.119,-0.683,-28.503,13.428,14.099
0.800,-0.093,-0.734,-24.719,14.465,15.381
0.785,-0.059,-0.743,-20.325,12.024,14.160
0.764,-0.025,-0.721,-16.541,7.690,11.902
0.844,-0.129,-0.651,-17.090,1.404,9.705
0.835,-0.137,-0.636,-18.433,-2.075,15.930
0.735,-0.071,-0.644,-13.672,1.953,20.569
0.730,-0.007,-0.613,-7.385,5.554,13.306
0.744,0.012,-0.597,-7.141,6.226,3.845
0.757,-0.000,-0.621,-13.367,3.052,-2.258
0.760,-0.014,-0.657,-19.287,-2.075,-4.883
0.759,-0.020,-0.680,-22.461,-6.592,-6.165
0.766,-0.009,-0.670,-22.888,-9.705,-7.629
0.771,-0.024,-0.656,-22.339,-11.536,-10.620
0.726,-0.021,-0.706,-21.423,-13.916,-14.587
0.858,-0.103,-0.522,-19.226,-22.522,-19.897
0.872,-0.210,-0.483,-23.437,-19.287,-16.846
0.885,-0.231,-0.515,-24.048,-5.798,-5.737
0.848,-0.217,-0.602,-18.005,7.751,4.822
0.838,-0.136,-0.646,-10.193,15.869,14.404
0.782,-0.102,-0.663,-4.578,17.029,18.799
0.768,-0.062,-0.668,-1.831,16.541,17.639
0.764,-0.017,-0.666,-1.160,12.939,17.212
0.751,0.005,-0.666,-1.526,8.606,14.648
0.753,0.007,-0.650,-2.075,4.761,10.071
0.767,-0.003,-0.624,-2.747,1.831,4.517
0.786,-0.032,-0.601,-4.395,0.671,0.000
0.798,-0.057,-0.608,-8.118,0.732,-1.953
0.800,-0.067,-0.641,-12.268,1.160,-1.343
0.799,-0.063,-0.656,-13.611,0.671,0.366
0.796,-0.057,-0.656,-13.062,-0.732,1.343
0.789,-0.048,-0.662,-12.573,-1.526,2.441
0.779,-0.031,-0.674,-11.597,-2.258,4.395
0.770,-0.004,-0.679,-9.399,-3.662,5.310
0.756,0.014,-0.668,-6.287,-5.676,3.967
0.696,0.071,-0.709,-4.761,-8.240,2.075
0.772,0.075,-0.624,-8.179,-18.127,-2.380
0.745,-0.000,-0.601,-13.000,-22.888,-6.958
0.783,-0.014,-0.570,-13.855,-21.179,-8.850
0.801,-0.039,-0.548,-11.169,-17.944,-10.010
0.801,-0.077,-0.553,-10.010,-13.123,-10.193
0.815,-0.085,-0.566,-8.545,-8.484,-7.812
0.818,-0.092,-0.571,-5.188,-4.761,-5.981
0.817,-0.099,-0.570,-1.770,-2.014,-5.310
0.827,-0.117,-0.587,0.061,-0.061,-4.883
0.846,-0.144,-0.614,0.000,0.244,-3.906
0.853,-0.153,-0.621,0.122,-1.343,-1.038
0.847,-0.139,-0.604,1.038,-3.723,4.089
0.829,-0.107,-0.583,0.427,-5.249,8.850
0.805,-0.068,-0.577,-1.709,-5.493,11.475
0.790,-0.036,-0.584,-3.540,-5.066,11.414
0.782,-0.024,-0.578,-4.272,-5.066,8.850
0.775,-0.022,-0.566,-3.601,-5.005,5.432
0.773,-0.015,-0.566,-3.418,-4.272,2.197
0.771,-0.022,-0.575,-4.211,-3.906,-0.916
0.770,-0.041,-0.583,-4.578,-4.456,-3.845
0.788,-0.047,-0.586,-4.761,-5.554,-5.859
0.799,-0.085,-0.584,-4.944,-6.653,-7.507
0.811,-0.120,-0.570,-3.540,-7.812,-7.996

-0.125,0.309,-0.929,2.563,-25.757,-25.696
-0.209,0.257,-0.826,8.423,-26.428,-22.522
-0.132,0.362,-0.825,11.108,-23.560,-17.761
-0.172,0.312,-0.904,8.850,-16.235,-15.381
-0.188,0.317,-0.956,9.216,-12.268,-13.123
-0.179,0.362,-0.925,19.287,-13.245,-12.634
-0.173,0.361,-0.853,25.574,-15.137,-14.832
-0.161,0.336,-0.810,22.888,-14.954,-15.686
-0.168,0.336,-0.794,16.846,-13.855,-14.221
-0.207,0.398,-0.777,10.437,-12.756,-12.512
-0.253,0.458,-0.812,5.432,-10.376,-15.320
-0.257,0.502,-0.889,0.610,-8.789,-22.888
-0.236,0.506,-0.934,-4.883,-10.803,-33.264
-0.215,0.512,-0.920,-12.878,-17.029,-42.908
-0.197,0.532,-0.877,-25.024,-25.146,-50.598
-0.214,0.519,-0.888,-40.527,-31.494,-56.763
-0.235,0.536,-0.953,-55.481,-35.706,-61.829
-0.225,0.546,-0.952,-66.406,-41.809,-67.322
-0.251,0.545,-0.950,-74.707,-50.476,-72.388
-0.188,0.660,-0.842,-82.764,-60.120,-80.322
-0.279,0.581,-0.803,-96.130,-65.857,-91.492
-0.285,0.598,-0.715,-112.976,-69.092,-103.088
-0.293,0.537,-0.737,-133.667,-68.970,-116.516
-0.310,0.490,-0.769,-157.532,-66.711,-131.653
-0.346,0.468,-0.825,-181.702,-61.829,-151.428
-0.358,0.454,-0.891,-202.942,-59.570,-173.950
-0.408,0.425,-0.976,-213.684,-61.035,-198.792
-0.350,0.306,-1.114,-211.975,-66.528,-224.792
-0.274,0.142,-1.219,-200.684,-76.904,-246.521
-0.172,0.097,-1.334,-183.105,-90.637,-260.559
-0.042,0.114,-1.263,-171.143,-105.774,-268.982
0.060,0.033,-1.160,-162.842,-116.760,-274.170
0.082,-0.073,-1.228,-148.621,-118.103,-274.719
0.140,-0.110,-1.141,-141.907,-121.704,-261.902
0.161,-0.179,-1.123,-125.977,-122.314,-250.061
0.190,-0.266,-1.121,-105.103,-117.554,-240.845
0.242,-0.374,-1.174,-83.740,-107.849,-233.459
0.315,-0.483,-1.207,-67.749,-97.595,-226.501
0.367,-0.558,-1.260,-58.594,-91.248,-217.651
0.435,-0.640,-1.344,-54.871,-89.050,-210.510
0.519,-0.738,-1.425,-53.345,-90.820,-203.979
0.583,-0.801,-1.461,-48.645,-95.459,-194.519
0.612,-0.836,-1.447,-43.823,-101.563,-180.603
0.621,-0.872,-1.409,-41.077,-107.666,-163.391
0.628,-0.915,-1.372,-40.405,-113.220,-145.752
0.614,-0.978,-1.368,-41.626,-118.225,-130.005
0.610,-1.038,-1.353,-46.448,-123.718,-116.272
0.623,-1.096,-1.325,-53.894,-130.188,-104.065
0.652,-1.173,-1.282,-64.514,-137.146,-93.567
0.707,-1.241,-1.232,-78.430,-144.592,-82.642
0.738,-1.278,-1.203,-97.412,-151.794,-69.580
0.745,-1.286,-1.212,-121.887,-158.081,-54.565
0.730,-1.260,-1.225,-146.301,-163.574,-37.903
0.698,-1.223,-1.282,-161.743,-168.030,-22.034
0.651,-1.200,-1.349,-166.504,-170.593,-7.812
0.597,-1.159,-1.386,-163.086,-172.180,6.409
0.549,-1.102,-1.367,-153.687,-172.974,21.179
0.511,-1.055,-1.275,-139.771,-173.096,33.691
0.488,-1.024,-1.164,-123.901,-171.997,43.884
0.476,-0.984,-1.041,-111.023,-168.884,52.429
0.463,-0.949,-0.907,-103.088,-163.757,60.242
0.451,-0.915,-0.810,-99.915,-156.311,67.871
0.467,-0.907,-0.753,-102.905,-147.949,76.111
0.507,-0.937,-0.735,-112.122,-140.137,86.304
0.556,-0.990,-0.754,-124.878,-134.277,100.281
0.582,-1.002,-0.784,-139.343,-132.141,117.920
0.572,-0.968,-0.814,-148.071,-133.911,138.916
0.534,-0.878,-0.861,-148.621,-139.160,161.377
0.475,-0.741,-0.878,-144.775,-146.667,181.824
0.388,-0.623,-0.869,-140.137,-154.541,196.655
0.332,-0.529,-0.798,-133.484,-161.682,203.857
0.350,-0.479,-0.679,-122.803,-166.748,201.355
0.431,-0.481,-0.528,-109.680,-168.640,189.697
0.525,-0.537,-0.422,-96.191,-167.480,172.974
0.541,-0.663,-0.345,-88.196,-165.588,158.020
0.590,-0.649,-0.211,-83.313,-164.734,148.437
0.633,-0.586,-0.108,-82.031,-162.231,141.235
0.617,-0.544,-0.036,-85.938,-156.616,135.010
0.570,-0.502,0.016,-89.600,-148.010,131.165
0.517,-0.444,0.071,-89.905,-137.390,128.906
0.508,-0.418,0.130,-89.111,-124.573,127.991
0.542,-0.414,0.214,-83.252,-109.619,128.052
0.597,-0.382,0.303,-72.266,-92.712,126.892
0.602,-0.392,0.391,-63.049,-73.242,124.146
0.609,-0.354,0.463,-55.542,-51.697,121.582
0.559,-0.334,0.552,-47.302,-29.114,120.911
0.558,-0.282,0.600,-47.241,-7.385,119.568
0.546,-0.248,0.557,-56.824,11.902,118.347
0.571,-0.295,0.481,-62.805,26.306,115.906
0.604,-0.309,0.474,-50.903,33.752,114.014
0.638,-0.300,0.510,-30.518,35.828,114.258
0.575,-0.285,0.611,-10.315,36.133,118.164
0.523,-0.233,0.750,3.906,38.269,125.427
0.468,-0.220,0.829,7.263,45.837,133.362
0.430,-0.180,0.801,-5.737,59.631,140.381
0.456,-0.189,0.676,-32.410,75.745,144.775
0.305,-0.125,0.585,-59.387,89.417,148.071
0.224,0.022,0.486,-77.271,100.525,147.034
0.144,0.004,0.459,-89.539,110.657,136.108
0.115,-0.040,0.333,-101.257,121.094,120.056
0.096,-0.102,0.188,-105.408,131.897,101.746
0.079,-0.192,0.071,-99.426,142.883,84.717
0.064,-0.227,0.024,-88.440,155.151,73.792
0.005,-0.226,-0.013,-86.121,169.495,68.604
-0.068,-0.216,-0.060,-92.163,186.035,66.589
-0.134,-0.204,-0.111,-103.455,203.369,64.148
-0.177,-0.210,-0.198,-116.272,218.628,59.143
-0.174,-0.231,-0.319,-125.916,229.858,52.795
-0.171,-0.268,-0.441,-132.507,234.985,47.729
-0.146,-0.292,-0.553,-136.841,233.398,46.204
-0.110,-0.355,-0.665,-140.869,225.647,48.462
-0.071,-0.408,-0.756,-144.043,212.952,53.467
-0.049,-0.438,-0.812,-145.813,199.097,60.974
-0.031,-0.463,-0.857,-149.475,186.768,68.359
0.036,-0.451,-0.879,-151.062,178.650,74.707
0.122,-0.359,-0.860,-140.869,176.392,78.979
0.174,-0.221,-0.825,-121.643,183.228,81.848
0.206,-0.092,-0.823,-106.873,200.867,86.304
0.099,0.071,-1.086,-100.464,225.281,94.360
0.199,0.239,-1.181,-99.182,234.314,104.004
0.280,0.287,-1.267,-96.069,223.755,111.572
0.182,0.324,-1.487,-96.558,216.858,122.070
0.195,0.422,-1.714,-87.769,200.256,128.235
0.216,0.451,-1.841,-64.148,169.983,121.826
0.218,0.442,-1.832,-30.945,133.240,104.004
0.227,0.431,-1.707,2.441,96.191,80.139
0.238,0.406,-1.518,26.306,62.744,54.871
0.253,0.355,-1.302,38.696,34.607,32.043
0.277,0.311,-1.078,41.260,13.794,14.038
0.320,0.307,-0.910,33.203,1.038,1.648
0.355,0.295,-0.854,12.756,-3.601,-5.676
0.385,0.251,-0.894,-13.489,-4.883,-9.399
0.424,0.208,-0.980,-35.034,-7.324,-10.254
0.482,0.186,-1.064,-45.105,-12.329,-9.644
0.528,0.163,-1.109,-44.373,-18.250,-9.338
0.544,0.123,-1.110,-35.400,-22.888,-10.132
0.536,0.082,-1.083,-23.621,-25.085,-10.315
0.527,0.065,-1.032,-13.245,-24.597,-8.850
0.513,0.074,-0.985,-4.944,-21.545,-5.798
0.500,0.102,-0.947,-0.366,-15.991,-3.479
0.501,0.114,-0.946,-0.427,-9.827,-2.686
0.509,0.121,-0.969,-2.502,-4.578,-3.662
0.520,0.126,-0.998,-4.150,-1.465,-5.615
0.520,0.123,-1.022,-5.005,-0.854,-8.179
0.513,0.130,-1.032,-4.028,-2.136,-10.132
0.508,0.147,-1.028,-2.380,-4.333,-10.986
0.512,0.154,-1.024,-1.282,-6.409,-11.841
0.524,0.144,-1.011,0.549,-8.789,-13.367
0.535,0.109,-0.973,5.066,-11.047,-15.259

0.343,0.043,-1.162,72.205,5.737,-0.305
0.459,0.132,-0.995,72.876,1.038,7.202
0.431,0.137,-1.004,67.810,1.038,16.357
0.398,0.159,-1.002,55.969,3.174,23.621
0.405,0.211,-0.996,48.523,3.357,28.503
0.418,0.232,-1.004,36.621,0.854,30.518
0.435,0.234,-1.030,18.616,-4.028,31.860
0.431,0.227,-1.084,-0.305,-10.925,32.959
0.451,0.158,-1.217,-14.709,-19.836,32.837
0.478,0.120,-1.370,-20.447,-30.945,33.630
0.520,0.069,-1.442,-18.799,-43.396,35.339
0.572,0.048,-1.490,-16.235,-54.443,38.696
0.605,0.017,-1.575,-20.081,-64.087,45.837
0.632,0.054,-1.611,-31.311,-75.562,57.129
0.629,0.072,-1.575,-52.795,-89.417,70.679
0.614,0.079,-1.451,-88.867,-103.149,85.938
0.614,-0.033,-1.640,-135.132,-112.671,102.844
0.613,-0.035,-1.747,-191.711,-133.301,126.221
0.538,-0.212,-1.631,-240.173,-155.151,153.015
0.497,-0.024,-1.463,-293.701,-172.485,178.894
0.512,0.118,-1.380,-344.727,-176.208,194.824
0.492,0.027,-1.500,-351.624,-169.983,186.890
0.489,-0.202,-1.656,-327.271,-164.246,162.292
0.410,-0.391,-1.752,-293.152,-168.945,136.902
0.375,-0.490,-1.635,-246.277,-181.152,120.544
0.416,-0.713,-1.207,-226.807,-191.101,119.263
0.605,-0.641,-0.851,-234.070,-185.974,134.460
0.366,-0.721,-0.668,-265.259,-161.682,155.701
0.339,-0.764,-0.644,-305.786,-129.028,190.491
0.369,-0.731,-0.704,-339.783,-94.299,232.605
0.507,-0.859,-0.628,-352.417,-63.477,266.235
0.577,-0.994,-0.718,-354.919,-38.330,294.189
0.443,-1.013,-0.745,-335.571,-18.372,325.867
0.365,-0.972,-0.745,-291.016,-4.517,355.896
0.336,-0.623,-0.642,-244.446,4.089,380.066
0.226,-0.695,-1.191,-220.215,5.859,396.790
0.129,-0.616,-0.995,-153.198,-11.047,407.959
0.071,-0.013,-0.642,-72.693,-45.471,417.542
0.226,0.115,-0.659,-35.156,-84.473,420.654
0.284,-0.040,-0.558,-56.885,-112.671,428.894
0.260,-0.065,-0.498,-93.689,-120.117,455.444
0.223,-0.001,-0.561,-116.394,-109.436,488.159
0.118,0.152,-0.577,-120.972,-93.018,510.437
0.063,0.334,-0.560,-120.300,-76.721,513.550
0.119,0.445,-0.529,-116.394,-60.913,498.413
0.186,0.548,-0.505,-105.225,-42.908,472.595
0.219,0.626,-0.499,-89.172,-21.118,441.467
0.225,0.740,-0.513,-71.228,1.770,408.936
0.223,0.796,-0.515,-54.810,23.560,377.441
0.285,0.782,-0.558,-43.701,40.833,349.854
0.385,0.827,-0.709,-33.325,51.147,329.163
0.523,0.840,-0.812,-22.034,51.025,311.035
0.164,0.635,-0.866,-17.334,38.391,288.574
-0.074,0.427,-0.890,-15.442,15.991,271.973
-0.208,0.292,-1.002,-23.254,-13.062,272.705
-0.296,0.443,-1.019,-37.048,-46.631,286.987
-0.183,0.485,-0.915,-56.824,-78.186,298.950
-0.036,0.335,-0.836,-95.825,-103.027,310.547
0.090,0.200,-0.756,-121.399,-117.126,324.280
0.122,0.161,-0.645,-115.356,-118.713,335.327
0.078,0.255,-0.584,-97.656,-108.276,339.539
0.036,0.465,-0.650,-98.206,-89.783,333.984
-0.003,0.595,-0.761,-122.253,-69.031,315.979
-0.137,0.680,-0.815,-151.001,-48.340,289.429
-0.206,0.708,-0.758,-173.706,-20.325,259.827
-0.255,0.647,-0.758,-184.326,19.897,232.056
-0.458,0.608,-0.957,-176.514,60.425,208.923
-0.685,0.648,-1.201,-159.363,84.961,189.697
-0.844,0.664,-1.354,-147.095,93.872,171.326
-0.953,0.665,-1.453,-144.409,95.581,153.381
-1.146,0.649,-1.524,-148.254,98.206,136.902
-1.062,0.740,-1.584,-145.142,104.248,117.920
-1.142,0.675,-1.627,-139.221,116.882,95.337
-1.268,0.623,-1.772,-123.718,131.653,74.097
-1.381,0.726,-1.940,-97.595,140.625,55.359
-1.531,0.881,-2.186,-82.458,141.724,39.978
-1.664,1.023,-2.430,-81.909,127.197,26.306
-1.764,1.101,-2.668,-91.675,97.168,12.329
-1.838,1.146,-2.903,-100.403,55.786,-5.432
-1.918,1.146,-3.033,-100.159,4.395,-30.029
-2.000,1.121,-3.052,-87.769,-55.237,-63.110
-2.075,1.072,-2.971,-69.153,-118.530,-102.661
-2.139,0.967,-2.825,-53.833,-180.115,-145.996
-2.233,0.777,-2.603,-37.842,-238.831,-189.758
-2.281,0.558,-2.382,-20.569,-289.062,-229.248
-2.324,0.261,-2.210,-2.930,-328.003,-261.108
-2.311,0.009,-2.159,17.273,-357.849,-284.790
-2.219,-0.194,-2.145,41.565,-386.169,-300.110
-2.194,-0.367,-2.105,63.477,-424.805,-308.044
-2.231,-0.511,-1.987,77.576,-478.088,-308.228
-2.379,-0.586,-1.579,93.506,-542.603,-302.490
-2.677,-0.727,-0.961,111.755,-610.840,-298.218
-2.830,-1.058,-0.033,116.638,-675.049,-297.302
-2.736,-1.388,1.081,106.201,-718.628,-289.856
-2.564,-1.634,1.881,87.646,-718.567,-267.517
-2.440,-1.776,2.109,75.500,-674.866,-232.117
-2.539,-1.890,1.967,78.247,-615.234,-186.890
-2.825,-1.814,1.992,86.975,-572.083,-136.780
-3.075,-1.375,2.375,72.632,-559.875,-86.731
-3.110,-0.781,2.962,6.042,-576.172,-36.194
-2.837,0.187,3.980,-101.196,-619.263,15.442
-2.104,1.433,4.000,-211.182,-668.274,56.274
-1.387,2.337,4.000,-294.861,-665.039,55.359
-0.798,2.255,4.000,-317.505,-540.710,-18.860
0.374,0.673,3.123,-268.188,-323.181,-163.818
1.753,-1.506,1.184,-133.423,-144.775,-308.289
2.491,-3.056,0.587,76.416,-67.505,-364.380
2.618,-3.574,1.041,249.329,-55.664,-312.988
2.415,-3.151,1.597,279.053,-57.922,-182.251
1.967,-2.023,1.884,183.350,-54.749,-10.620
1.215,-0.604,1.980,42.847,-46.265,139.771
0.395,0.822,2.008,-56.274,-24.475,223.206
-0.027,1.643,1.652,-109.863,10.986,225.769
-0.073,1.701,0.896,-147.156,44.128,173.706
0.083,1.315,0.006,-168.030,55.969,112.366
0.304,0.822,-0.569,-169.250,34.668,66.284
0.503,0.414,-0.660,-149.353,-7.507,39.917
0.662,0.227,-0.292,-109.131,-48.401,29.358
0.732,0.279,0.233,-59.814,-68.848,27.344
0.779,0.349,0.680,-17.334,-63.599,24.841
0.809,0.452,0.958,10.010,-40.161,22.278
0.784,0.574,0.991,27.588,-8.545,20.935
0.758,0.685,0.851,36.499,20.081,18.433
0.720,0.738,0.658,37.537,36.377,13.489
0.696,0.735,0.460,31.982,38.879,6.653
0.703,0.692,0.317,23.193,28.870,-1.282
0.731,0.572,0.297,15.381,11.047,-8.362
0.789,0.427,0.373,10.132,-6.653,-14.282
0.853,0.329,0.494,9.705,-17.029,-16.052
0.884,0.273,0.587,10.010,-18.005,-12.817
0.881,0.263,0.612,6.409,-13.306,-5.859
0.874,0.282,0.623,-1.526,-8.850,3.235
0.825,0.325,0.641,-12.024,-6.958,12.573
0.795,0.359,0.642,-22.888,-6.104,17.822
0.787,0.371,0.608,-29.724,-4.700,19.348
0.791,0.407,0.577,-30.457,-2.502,18.127
0.782,0.429,0.537,-25.818,0.366,14.954
0.768,0.426,0.495,-19.592,3.479,11.658
0.754,0.427,0.448,-13.977,5.493,9.644
0.731,0.446,0.423,-9.338,5.493,9.155
0.711,0.439,0.419,-6.165,4.089,7.935
0.711,0.450,0.422,-4.333,2.808,6.104
0.710,0.469,0.439,-2.136,2.563,3.967
0.711,0.502,0.464,-0.122,3.113,1.404
0.709,0.498,0.457,1.709,4.211,-2.625
0.726,0.460,0.421,2.563,5.493,-6.409
0.745,0.403,0.386,3.235,5.676,-9.949
0.759,0.344,0.373,4.639,3.906,-11.902
0.783,0.304,0.368,5.432,1.099,-12.085

0.653,0.635,-0.292,26.123,11.047,-0.183
0.692,0.665,-0.212,31.921,12.939,6.287
0.701,0.631,-0.195,31.128,16.113,13.672
0.746,0.644,-0.219,21.484,14.709,21.790
0.800,0.750,-0.188,12.390,9.277,28.442
0.761,0.801,-0.153,1.953,3.784,30.273
0.719,0.710,-0.176,-12.695,0.977,28.931
0.716,0.650,-0.191,-20.508,-0.305,30.762
0.715,0.664,-0.151,-22.156,-0.671,35.889
0.697,0.733,-0.140,-25.696,-0.183,41.504
0.655,0.749,-0.105,-37.537,-0.732,44.983
0.660,0.750,-0.125,-55.664,-3.296,47.852
0.694,0.740,-0.167,-74.768,-6.226,51.392
0.760,0.764,-0.166,-88.745,-8.789,55.786
0.794,0.773,-0.181,-101.807,-9.644,60.852
0.735,0.742,-0.214,-114.868,-12.085,67.139
0.553,0.640,-0.204,-128.357,-19.226,76.599
0.163,0.740,-0.127,-136.658,-31.982,91.553
0.327,0.983,-0.091,-136.108,-42.908,104.492
0.282,1.135,-0.361,-154.114,-49.377,98.694
0.159,1.134,-0.660,-163.025,-61.951,80.872
0.283,1.022,-0.500,-148.621,-88.745,56.152
0.392,0.853,-0.320,-136.841,-107.788,29.358
0.413,0.657,-0.244,-137.268,-109.131,7.812
0.455,0.664,-0.267,-146.179,-94.482,0.793
0.514,0.867,-0.248,-169.678,-63.171,4.761
0.669,0.720,-0.579,-201.599,-23.499,9.033
0.665,0.640,-0.810,-187.256,7.202,20.935
0.661,0.643,-1.030,-152.893,23.621,36.438
