aX,aY,aZ,gX,gY,gZ
0.157,-0.552,1.190,9.094,-73.669,-108.032
0.220,-0.545,0.936,3.967,-57.373,-96.802
0.133,-0.547,0.804,-8.362,-56.396,-100.525
0.138,-0.511,0.736,-24.536,-71.106,-99.487
0.168,-0.505,0.850,-32.227,-80.994,-97.961
0.301,-0.518,0.972,-35.034,-78.125,-85.144
0.388,-0.560,1.023,-43.518,-68.420,-61.096
0.396,-0.302,1.096,-53.955,-66.223,-39.795
0.280,-0.189,1.253,-49.744,-70.068,-31.555
0.224,-0.182,1.354,-43.091,-58.594,-34.851
0.293,-0.293,1.320,-42.969,-31.128,-37.598
0.365,-0.455,1.108,-46.021,-5.432,-32.043
0.396,-0.573,0.888,-48.279,-3.052,-11.780
0.437,0.150,1.194,-60.791,-22.217,32.532
0.538,-0.167,0.951,-29.236,-17.578,50.964
0.516,-0.403,0.724,16.174,20.569,7.080
0.594,-0.305,0.719,10.071,24.841,15.808
0.582,-0.384,0.778,35.461,10.559,44.739
0.396,-0.303,0.860,39.001,-4.761,63.477
0.365,-0.164,0.840,37.231,-18.494,51.941
0.371,-0.104,0.849,38.696,-19.592,26.489
0.388,-0.028,0.860,54.504,-16.357,4.517
0.421,-0.062,0.849,74.707,-11.047,-13.672
0.447,-0.151,0.884,92.529,-8.606,-34.973
0.479,-0.166,0.868,105.713,-6.775,-46.509
0.391,-0.173,0.847,110.535,-5.127,-48.706
0.434,-0.031,0.739,106.079,-11.841,-45.715
0.098,-0.127,0.935,95.581,-32.043,-50.232
0.063,-0.202,1.128,81.543,-36.621,-46.204
0.187,-0.143,1.105,41.565,-25.330,-37.537
0.221,-0.031,1.100,3.418,-20.996,-33.386
0.210,-0.029,1.180,-8.057,-23.743,-36.926
0.172,-0.087,1.254,-11.780,-22.583,-44.861
0.159,-0.126,1.311,-21.729,-14.954,-49.194
0.176,-0.138,1.324,-32.104,-4.089,-49.072
0.214,-0.103,1.256,-39.001,7.996,-47.363
0.234,-0.053,1.127,-39.429,19.287,-44.189
0.257,-0.045,0.996,-30.823,26.550,-40.161
0.287,-0.054,0.866,-18.311,27.832,-35.522
0.320,-0.054,0.763,-7.874,22.034,-30.273
0.315,-0.069,0.728,-1.343,8.728,-26.306
0.289,-0.092,0.745,1.343,-6.897,-23.499
0.254,-0.103,0.784,0.000,-21.179,-21.484
0.227,-0.090,0.828,-2.625,-30.762,-21.301
0.210,-0.072,0.875,-3.845,-36.743,-24.109
0.202,-0.081,0.933,-1.465,-39.429,-29.175
0.180,-0.083,0.967,2.869,-39.307,-34.180
0.161,-0.073,0.977,8.667,-37.598,-39.978
0.155,-0.107,0.977,18.250,-35.767,-48.157
0.157,-0.171,0.948,26.123,-32.898,-55.664
0.152,-0.222,0.939,27.954,-32.104,-58.228
0.154,-0.257,0.950,26.733,-33.997,-58.167
0.169,-0.305,0.969,27.039,-37.415,-58.105
0.199,-0.368,0.996,27.100,-39.429,-56.885
0.224,-0.420,1.030,25.146,-39.978,-54.565
0.234,-0.452,1.064,21.484,-39.063,-50.964
0.235,-0.492,1.097,18.433,-35.889,-46.204
0.239,-0.517,1.125,17.639,-29.907,-40.710
0.242,-0.533,1.147,18.616,-22.156,-34.851
0.261,-0.547,1.151,21.362,-13.184,-29.724
0.283,-0.585,1.148,26.489,-5.493,-25.818
0.298,-0.638,1.149,32.104,-0.916,-22.522
0.308,-0.681,1.166,35.889,0.488,-18.921
0.316,-0.717,1.188,38.330,2.136,-14.893
0.313,-0.746,1.201,39.368,6.531,-11.047
0.332,-0.756,1.191,39.246,11.475,-4.395
0.348,-0.757,1.138,39.551,14.709,2.991
0.361,-0.792,1.069,42.175,13.794,11.047
0.349,-0.843,1.051,41.748,7.019,18.738
0.319,-0.841,1.075,33.264,2.075,28.381
0.288,-0.790,1.095,21.179,3.540,39.673
0.282,-0.720,1.090,10.559,10.864,49.133
0.299,-0.634,1.052,2.502,18.982,55.603
0.318,-0.554,1.012,-2.747,22.278,60.059
0.331,-0.497,0.992,-5.249,19.470,63.721
0.317,-0.428,0.995,-7.812,15.564,67.017
0.286,-0.333,1.005,-5.676,15.930,70.068
0.269,-0.253,0.992,4.089,23.804,70.923
0.269,-0.207,0.932,16.846,35.217,69.824
0.285,-0.181,0.880,27.466,41.992,66.345
0.315,-0.189,0.820,37.109,41.504,60.547
0.332,-0.250,0.808,46.021,32.654,53.284
0.317,-0.307,0.824,44.250,22.766,46.753
0.309,-0.350,0.814,34.058,17.883,41.443
0.282,-0.409,0.778,23.315,14.099,37.781
0.248,-0.460,0.749,12.939,10.620,36.804
0.224,-0.464,0.708,1.587,9.766,41.077
0.207,-0.432,0.660,-8.728,9.888,49.683
0.169,-0.400,0.650,-17.944,6.409,59.448
0.093,-0.324,0.677,-27.832,-1.770,67.871
0.044,-0.233,0.732,-34.241,-11.047,72.693
0.043,-0.161,0.823,-32.104,-17.273,73.730
0.048,-0.139,0.944,-20.325,-19.226,69.031
0.051,-0.189,1.059,-3.052,-18.311,61.279
0.052,-0.282,1.156,10.803,-16.846,53.467
0.055,-0.364,1.218,17.151,-13.733,47.546
0.018,-0.401,1.257,16.235,-4.761,47.119
-0.005,-0.387,1.205,11.414,10.315,49.927
-0.004,-0.360,1.077,7.446,26.245,52.979
-0.014,-0.301,0.926,3.052,35.950,55.542
-0.018,-0.249,0.812,-0.061,37.659,56.458
-0.014,-0.209,0.747,-0.977,33.752,56.763
-0.013,-0.164,0.728,-0.549,27.222,56.152
-0.001,-0.125,0.741,0.122,21.790,53.406
0.013,-0.086,0.747,0.366,20.630,49.377
0.016,-0.057,0.741,1.526,21.667,44.373
0.007,-0.053,0.739,6.042,19.958,36.621
0.003,-0.072,0.727,13.000,13.916,27.588
0.009,-0.111,0.734,20.508,4.395,17.822
0.062,-0.171,0.782,26.123,-6.042,6.958
0.131,-0.236,0.836,27.039,-14.221,-2.075
0.175,-0.294,0.872,23.621,-19.043,-8.057
0.212,-0.325,0.901,15.442,-21.484,-9.583
0.251,-0.321,0.915,3.967,-20.996,-7.812
0.289,-0.315,0.912,-5.493,-17.395,-5.127
0.328,-0.313,0.892,-11.108,-11.475,-1.099
0.354,-0.300,0.853,-14.343,-5.859,5.127
0.349,-0.255,0.814,-16.174,-2.808,13.123
0.335,-0.205,0.794,-16.174,-2.380,19.043
0.322,-0.171,0.792,-12.817,-3.174,20.752
0.338,-0.150,0.798,-7.263,-4.150,19.165
0.386,-0.156,0.805,-0.916,-6.409,16.968
0.401,-0.172,0.820,4.211,-10.681,16.602
0.397,-0.173,0.846,5.859,-15.137,17.822
0.368,-0.157,0.878,4.028,-19.287,19.287
0.348,-0.137,0.917,1.465,-21.362,19.165
0.344,-0.129,0.955,0.061,-21.729,17.273
0.333,-0.161,0.991,0.000,-20.813,13.977
0.308,-0.200,1.001,-1.770,-18.250,11.658
0.286,-0.211,0.981,-5.432,-15.625,10.864
0.282,-0.202,0.960,-9.155,-14.893,9.644
0.273,-0.206,0.967,-10.071,-15.747,7.935
0.253,-0.208,0.987,-8.484,-15.381,6.531
0.243,-0.210,1.000,-4.700,-12.329,6.226
0.245,-0.207,1.006,-0.122,-7.751,6.470
0.248,-0.220,1.010,4.211,-3.723,5.798
0.248,-0.233,1.002,6.836,-0.916,4.578
0.264,-0.242,0.978,7.019,0.732,3.418
0.282,-0.255,0.944,5.615,-0.671,2.563
0.270,-0.251,0.927,1.648,-4.517,2.197
0.266,-0.244,0.926,-2.686,-8.301,1.831
0.265,-0.233,0.928,-5.554,-9.766,1.831
0.257,-0.222,0.930,-7.263,-9.644,1.831
0.255,-0.221,0.930,-7.446,-8.728,1.160
0.252,-0.219,0.918,-6.592,-6.897,0.671
0.256,-0.210,0.892,-4.578,-5.371,0.793
0.255,-0.209,0.867,-2.197,-6.348,0.366
0.247,-0.203,0.864,-0.488,-9.155,-0.244
0.253,-0.191,0.870,0.366,-11.047,-0.488
0.262,-0.174,0.872,0.732,-12.329,-0.366
0.254,-0.160,0.889,-0.366,-15.015,-0.183
0.240,-0.140,0.921,-2.502,-17.151,-0.549
0.232,-0.117,0.953,-4.272,-17.395,-0.427
0.220,-0.101,0.980,-4.822,-15.991,-0.488
0.216,-0.109,1.000,-3.662,-13.977,-1.709
0.207,-0.129,1.016,-2.136,-11.658,-4.150
0.204,-0.141,1.020,-1.526,-7.874,-6.592
0.226,-0.147,1.004,-0.122,-3.174,-8.606
0.248,-0.182,0.981,2.441,-1.648,-11.169
0.250,-0.218,0.965,4.883,-2.380,-12.573
0.242,-0.225,0.951,5.249,-3.052,-11.841
0.245,-0.220,0.927,5.859,-3.357,-10.986
0.246,-0.221,0.923,7.202,-4.150,-10.803
0.242,-0.230,0.939,7.996,-6.409,-11.292
0.239,-0.237,0.956,8.057,-7.996,-11.475
0.240,-0.233,0.970,7.629,-7.812,-11.353
0.235,-0.229,0.974,6.714,-5.920,-11.780
0.229,-0.235,0.959,6.165,-3.784,-12.939
0.228,-0.249,0.942,6.409,-2.563,-14.771
0.237,-0.263,0.942,5.798,-3.296,-15.808
0.242,-0.283,0.952,4.883,-5.310,-16.541
0.247,-0.302,0.970,4.089,-6.958,-16.785
0.248,-0.315,0.986,3.235,-7.874,-16.357
0.250,-0.316,0.998,2.502,-7.202,-14.709
0.252,-0.315,1.001,2.075,-6.042,-13.306
0.251,-0.305,0.998,1.770,-4.150,-11.841
0.249,-0.292,0.981,2.930,-1.953,-10.254
0.252,-0.282,0.961,4.578,-0.671,-9.766
0.249,-0.279,0.954,5.554,-0.977,-10.071
0.241,-0.273,0.966,5.493,-1.221,-10.071
0.242,-0.284,0.986,5.127,-1.282,-10.742
0.238,-0.289,0.990,3.967,-0.061,-11.169
0.243,-0.282,0.977,2.441,1.648,-10.925
0.248,-0.284,0.955,1.404,1.282,-11.292
0.248,-0.295,0.949,0.732,-1.038,-12.390
0.242,-0.302,0.958,-0.122,-2.808,-13.184
0.239,-0.304,0.964,-0.732,-2.869,-13.062
0.247,-0.327,0.961,-0.549,-2.014,-12.207
0.258,-0.351,0.957,-0.793,-1.099,-10.559
0.261,-0.354,0.945,-2.563,0.305,-7.874
0.256,-0.339,0.932,-4.272,1.648,-5.005
0.255,-0.315,0.912,-4.333,3.357,-2.625
0.258,-0.301,0.891,-2.563,4.333,-1.587
0.265,-0.299,0.880,-1.099,3.723,-1.221
0.256,-0.293,0.890,-1.221,1.892,-1.587
0.245,-0.282,0.910,-3.113,0.244,-1.282
0.241,-0.278,0.928,-4.333,-0.854,-1.648
0.240,-0.278,0.941,-5.798,-0.366,-3.052
0.247,-0.288,0.940,-6.226,1.160,-4.517
0.257,-0.306,0.925,-5.554,1.282,-5.432
0.261,-0.313,0.915,-5.615,-0.061,-5.249
0.255,-0.308,0.921,-6.226,-1.953,-5.066
0.253,-0.307,0.930,-5.493,-3.540,-5.432
0.250,-0.311,0.938,-3.906,-3.418,-5.615
0.250,-0.316,0.938,-1.831,-1.892,-5.249
0.252,-0.321,0.933,0.305,-0.671,-4.395
0.246,-0.323,0.926,1.709,0.000,-3.723
0.236,-0.326,0.922,2.625,0.366,-3.784
0.245,-0.324,0.903,3.479,0.244,-4.578
0.248,-0.341,0.896,5.493,-0.977,-5.615
0.260,-0.360,0.904,7.324,-3.418,-5.920
0.269,-0.377,0.922,8.240,-5.676,-5.066
0.262,-0.392,0.935,8.911,-6.470,-3.357
0.250,-0.392,0.944,7.935,-6.287,-1.343
0.245,-0.383,0.950,6.042,-5.615,0.427
0.245,-0.382,0.952,4.761,-4.089,1.526
0.246,-0.389,0.948,4.456,-2.991,2.075
0.244,-0.392,0.941,3.662,-3.357,2.991
0.246,-0.396,0.948,1.709,-5.615,3.601
0.250,-0.394,0.951,-0.610,-6.470,4.150
0.253,-0.386,0.935,-1.221,-5.493,5.981
0.254,-0.385,0.918,0.000,-3.540,8.362
0.251,-0.385,0.907,1.953,-2.686,10.742
0.252,-0.387,0.913,3.235,-4.028,12.634
0.251,-0.382,0.926,3.723,-6.409,14.587
0.247,-0.371,0.954,3.113,-9.521,16.357
0.237,-0.356,0.983,1.709,-11.536,17.273
0.231,-0.348,1.002,1.038,-10.864,17.578
0.237,-0.346,1.012,1.526,-7.935,18.005
0.244,-0.344,0.996,2.563,-4.272,18.555
0.248,-0.346,0.980,3.235,-2.991,18.188
0.256,-0.340,0.973,2.014,-3.723,17.761
0.266,-0.329,0.975,0.793,-4.517,18.005
0.267,-0.319,0.980,0.916,-4.211,18.860
0.264,-0.309,0.978,1.709,-2.563,20.142
0.263,-0.305,0.971,3.418,-0.671,21.179
0.261,-0.306,0.960,5.005,0.671,21.667
0.262,-0.303,0.950,5.859,1.526,22.156
0.266,-0.296,0.940,6.104,2.136,22.461
0.268,-0.291,0.929,6.104,2.686,22.461
0.267,-0.291,0.919,6.226,2.502,22.644
0.258,-0.287,0.911,5.371,2.014,22.766
0.258,-0.277,0.906,4.944,1.648,22.705
0.264,-0.271,0.900,4.456,1.587,22.888
0.262,-0.266,0.892,4.089,1.160,23.437
0.250,-0.254,0.892,3.540,0.061,23.804
0.248,-0.238,0.888,2.747,-0.183,24.292
0.249,-0.222,0.881,3.113,1.160,24.658
0.249,-0.221,0.872,3.906,1.770,23.865
0.245,-0.228,0.864,4.395,1.648,22.827
0.242,-0.227,0.851,4.272,1.282,22.034
0.251,-0.231,0.843,4.028,0.244,21.057
0.258,-0.232,0.845,3.784,-1.038,20.020
0.260,-0.248,0.853,3.784,-2.563,19.165
0.260,-0.254,0.866,3.357,-4.272,19.714
0.261,-0.247,0.882,2.747,-5.798,20.752
0.259,-0.238,0.900,2.625,-6.409,21.118
0.260,-0.240,0.910,3.784,-6.226,20.813
0.259,-0.235,0.919,5.005,-5.737,20.508
0.262,-0.234,0.923,5.310,-5.310,19.836
0.260,-0.237,0.923,5.615,-5.371,19.165
0.255,-0.236,0.925,5.249,-6.104,18.250
0.257,-0.243,0.932,4.761,-7.141,16.663
0.262,-0.252,0.933,4.395,-7.507,15.137
0.267,-0.259,0.926,4.517,-6.348,14.404
0.274,-0.269,0.906,6.165,-4.761,14.648
0.278,-0.280,0.891,8.240,-3.906,15.564
0.281,-0.289,0.882,9.705,-3.723,16.479
0.277,-0.297,0.880,9.827,-4.822,17.395
0.271,-0.295,0.882,8.606,-6.226,18.311
0.267,-0.283,0.887,7.507,-7.507,18.860
0.264,-0.274,0.888,6.775,-8.545,18.799
0.268,-0.272,0.893,6.348,-9.644,18.005
0.272,-0.271,0.904,6.470,-10.376,17.639
0.273,-0.280,0.918,6.592,-11.230,16.785
0.272,-0.292,0.921,6.714,-10.742,16.602
0.273,-0.293,0.912,6.836,-9.705,16.663
0.282,-0.299,0.905,7.446,-9.399,16.968
0.288,-0.303,0.908,8.240,-9.338,17.700
0.289,-0.302,0.916,8.667,-9.399,19.043
0.284,-0.291,0.918,9.155,-9.583,20.508
0.286,-0.284,0.924,10.071,-10.071,21.301
0.286,-0.281,0.934,9.766,-11.719,21.667
0.279,-0.283,0.954,8.240,-14.282,21.179
0.271,-0.279,0.975,5.554,-15.869,20.813
0.266,-0.265,0.990,2.625,-15.198,20.813
0.264,-0.248,0.992,0.854,-13.245,20.996
0.266,-0.241,0.983,1.099,-10.132,20.508
0.261,-0.241,0.970,1.831,-7.751,19.836
0.257,-0.233,0.961,2.625,-6.104,19.714
0.255,-0.221,0.954,3.540,-4.578,19.531
0.262,-0.221,0.943,5.493,-4.028,18.616
0.263,-0.230,0.934,7.019,-5.432,16.968
0.262,-0.233,0.940,6.836,-7.935,15.808
0.264,-0.228,0.947,5.981,-9.033,15.320
0.268,-0.220,0.944,5.981,-7.996,15.381
0.267,-0.219,0.937,6.775,-6.958,15.503
0.264,-0.219,0.930,6.836,-6.775,15.442
0.258,-0.225,0.927,5.981,-6.165,15.015
0.250,-0.222,0.923,4.822,-5.981,14.343
0.246,-0.214,0.920,4.089,-6.714,13.245
0.247,-0.208,0.926,3.784,-7.202,12.085
0.248,-0.206,0.929,4.272,-6.409,11.047
0.242,-0.210,0.928,5.493,-5.005,10.010
0.240,-0.223,0.922,6.531,-4.028,8.728
0.250,-0.237,0.922,6.470,-5.066,7.446
0.255,-0.241,0.931,5.127,-7.141,6.470
0.252,-0.248,0.936,3.845,-8.484,5.554
0.248,-0.252,0.932,2.563,-8.911,4.883
0.249,-0.251,0.930,1.770,-8.606,4.395
0.250,-0.256,0.933,1.648,-9.216,4.211
0.252,-0.255,0.942,1.099,-9.766,3.845
0.247,-0.259,0.959,0.427,-10.010,3.662
0.235,-0.263,0.974,0.427,-9.888,3.662
0.232,-0.262,0.988,0.122,-9.216,3.357
0.226,-0.262,1.001,-0.183,-7.446,3.235
0.223,-0.257,1.001,0.305,-5.493,3.296
0.224,-0.278,0.996,0.366,-4.272,2.686
0.218,-0.279,1.002,-3.235,-4.211,0.061
0.230,-0.258,1.003,-7.996,-3.601,-0.061
0.234,-0.232,1.003,-9.399,-1.953,0.183
0.239,-0.212,0.982,-8.911,1.038,0.000
0.246,-0.222,0.959,-6.531,3.967,-1.160
0.253,-0.241,0.934,-2.258,5.127,-3.296
0.248,-0.278,0.911,-0.732,4.395,-4.028
0.252,-0.279,0.903,-1.465,2.686,-3.113
0.256,-0.286,0.900,-1.648,0.732,-1.587
0.259,-0.287,0.903,-0.305,-1.099,-0.610
0.259,-0.294,0.912,1.038,-3.357,0.244
0.249,-0.291,0.932,1.587,-6.042,1.282
0.240,-0.275,0.956,1.648,-6.714,2.441
0.235,-0.257,0.963,2.380,-5.066,2.930
0.235,-0.252,0.958,3.662,-2.686,2.747
0.234,-0.249,0.954,4.028,-1.648,2.319
0.238,-0.245,0.952,3.540,-1.526,1.404
0.240,-0.250,0.941,2.563,-2.075,0.000
0.237,-0.252,0.936,0.549,-3.479,-1.038
0.232,-0.248,0.945,-2.136,-4.761,-1.648
0.224,-0.250,0.957,-3.601,-5.676,-2.808
0.228,-0.258,0.972,-3.479,-5.737,-3.845
0.236,-0.268,0.986,-2.502,-5.005,-4.211
0.237,-0.275,0.994,-1.526,-3.723,-3.723
0.240,-0.282,0.990,-0.366,-2.686,-2.930
0.236,-0.283,0.992,0.305,-2.136,-2.380
0.237,-0.271,0.995,-0.244,-1.770,-1.953
0.237,-0.266,0.997,-0.610,-1.282,-2.441
0.239,-0.265,0.994,-0.488,-0.305,-3.174
0.244,-0.264,0.982,-0.549,1.221,-3.357
0.245,-0.263,0.958,-1.038,2.441,-3.601
0.247,-0.266,0.934,-1.160,2.563,-4.272
0.245,-0.276,0.925,-1.587,1.221,-5.188
0.237,-0.276,0.930,-2.747,-0.183,-5.493
0.235,-0.276,0.936,-3.296,-0.488,-5.615
0.240,-0.278,0.935,-2.686,0.732,-5.249
0.243,-0.278,0.925,-1.404,2.625,-4.272
0.244,-0.281,0.907,0.061,3.845,-3.723
0.249,-0.284,0.887,0.366,4.333,-2.869
0.250,-0.285,0.869,0.000,2.991,-2.380
0.242,-0.279,0.869,-1.343,-0.122,-1.892
0.238,-0.264,0.885,-2.747,-3.235,-1.404
0.237,-0.248,0.906,-2.808,-5.066,-1.404
0.236,-0.244,0.919,-1.831,-5.188,-1.709
0.233,-0.248,0.928,-0.488,-5.005,-2.563
0.229,-0.247,0.932,-0.549,-4.639,-3.357
0.231,-0.240,0.929,-1.221,-4.089,-4.028
0.241,-0.232,0.916,-1.038,-2.686,-4.578
0.249,-0.235,0.901,-0.061,-1.892,-4.944
0.246,-0.235,0.891,0.122,-2.014,-4.883
0.246,-0.233,0.887,-0.183,-2.808,-4.883
0.246,-0.228,0.888,-0.305,-3.174,-4.700
0.245,-0.219,0.886,-0.549,-3.296,-4.150
0.240,-0.210,0.885,-1.099,-3.357,-3.906
0.231,-0.204,0.888,-1.587,-3.906,-3.784
0.216,-0.191,0.896,-2.441,-4.517,-3.723
0.204,-0.181,0.904,-2.747,-5.249,-4.517
0.202,-0.179,0.914,-2.014,-6.409,-6.287
0.206,-0.183,0.933,-1.587,-7.629,-8.911
0.214,-0.197,0.951,-1.343,-7.874,-11.902
0.214,-0.201,0.958,-0.977,-7.141,-13.489
0.223,-0.198,0.956,-0.122,-5.981,-14.160
0.240,-0.209,0.945,1.221,-6.348,-15.198
0.245,-0.222,0.947,1.343,-8.850,-16.418
0.240,-0.227,0.966,-1.038,-11.536,-17.273
0.228,-0.219,0.984,-4.150,-12.451,-17.761
0.221,-0.206,0.997,-6.409,-12.512,-18.433
0.221,-0.212,1.010,-7.080,-12.024,-19.836
0.223,-0.220,1.026,-6.592,-9.949,-20.874
0.226,-0.228,1.033,-5.432,-6.958,-21.362
0.226,-0.229,1.026,-4.395,-3.784,-21.606
0.231,-0.230,1.003,-3.235,-1.526,-22.095
0.234,-0.231,0.983,-2.075,-0.793,-22.827
0.236,-0.231,0.973,-1.831,-0.854,-23.437
0.232,-0.239,0.973,-1.953,-1.343,-24.170
0.230,-0.245,0.975,-2.014,-1.953,-25.146
0.238,-0.248,0.982,-1.953,-1.892,-25.940
0.246,-0.247,0.983,-1.831,-0.977,-25.696
0.248,-0.246,0.976,-1.038,0.488,-25.269
0.247,-0.249,0.962,-0.610,1.709,-25.330
0.245,-0.250,0.948,-0.732,2.869,-25.269
0.241,-0.249,0.932,-1.038,3.601,-25.146
0.239,-0.252,0.915,-0.916,4.089,-25.635
0.238,-0.257,0.900,-0.916,3.174,-26.550
0.236,-0.264,0.896,-0.671,1.282,-27.588
0.241,-0.265,0.901,-0.427,-0.488,-27.649
0.240,-0.260,0.909,-0.305,-1.221,-27.100
0.235,-0.253,0.910,-0.183,-0.610,-26.489
0.233,-0.244,0.896,-0.122,1.587,-26.062
0.237,-0.235,0.870,0.061,4.150,-25.818
0.243,-0.233,0.837,0.366,6.775,-25.696
0.249,-0.231,0.801,0.366,9.705,-25.330
0.253,-0.223,0.755,0.916,13.062,-24.414
0.256,-0.213,0.709,2.869,17.090,-23.499
0.251,-0.225,0.665,6.958,22.400,-22.400
0.216,-0.272,0.636,11.292,28.748,-20.081
0.144,-0.285,0.609,13.428,31.616,-15.808
0.102,-0.280,0.579,13.000,25.574,-12.634
0.083,-0.252,0.572,10.498,9.521,-13.611
0.107,-0.217,0.626,7.446,-13.611,-19.897
0.123,-0.215,0.743,7.019,-36.987,-26.184
0.109,-0.228,0.872,10.132,-51.941,-28.564
0.082,-0.240,0.969,14.709,-55.054,-28.503
0.052,-0.272,1.034,19.653,-50.598,-29.175
0.031,-0.332,1.105,24.902,-44.922,-30.457
-0.011,-0.393,1.175,25.391,-40.649,-30.701
-0.060,-0.416,1.267,19.897,-41.016,-30.945
-0.095,-0.445,1.386,13.245,-45.288,-33.569
-0.087,-0.484,1.525,7.874,-51.270,-38.513
-0.041,-0.542,1.706,4.944,-55.664,-42.725
0.015,-0.660,1.932,5.676,-53.528,-44.250
0.048,-0.776,2.145,8.240,-43.579,-40.527
0.005,-0.915,2.323,12.146,-24.658,-33.875
0.016,-1.120,2.490,17.273,-3.052,-31.555
0.127,-1.311,2.615,18.921,21.484,-29.114
0.237,-1.405,2.606,8.240,57.739,-21.790
0.249,-1.319,2.447,-14.709,105.042,-7.019
0.233,-1.160,2.154,-36.072,153.931,5.615
0.177,-1.050,1.827,-46.387,194.641,14.282
0.111,-0.950,1.503,-48.218,225.464,21.301
0.052,-0.834,1.174,-42.358,249.756,26.489
0.002,-0.772,0.871,-29.480,264.404,26.184
0.008,-0.709,0.570,-19.775,267.639,23.132
0.068,-0.549,0.409,-16.785,258.545,20.081
0.167,-0.443,0.225,-1.038,244.202,18.311
0.246,-0.422,0.054,23.437,223.877,19.897
0.305,-0.415,-0.006,43.945,193.787,26.978
0.311,-0.381,-0.005,60.059,158.203,37.781
0.269,-0.315,0.048,72.998,123.901,50.476
0.237,-0.235,0.130,79.834,98.389,60.669
0.223,-0.163,0.236,80.505,83.862,66.101
0.214,-0.103,0.320,77.576,80.322,67.810
0.227,-0.079,0.356,75.806,83.740,66.956
0.240,-0.044,0.358,70.679,86.304,65.918
0.254,0.010,0.347,60.669,88.989,63.660
0.278,0.036,0.326,51.880,89.600,55.542
0.343,0.030,0.306,44.983,86.060,43.457
0.435,0.007,0.293,38.757,78.613,32.288
0.522,-0.006,0.290,33.264,71.594,26.184
0.581,-0.022,0.308,29.419,65.918,26.001
0.535,-0.036,0.320,28.748,57.068,28.809
0.588,-0.041,0.322,28.259,50.903,31.921
0.597,-0.033,0.333,25.818,41.138,32.776
0.569,-0.023,0.370,22.095,36.194,28.748
0.569,-0.030,0.422,20.691,35.095,19.775
0.615,-0.078,0.451,21.912,34.851,7.874
0.690,-0.126,0.457,21.362,32.043,-3.906
0.780,-0.167,0.472,15.381,27.039,-12.939
0.811,-0.191,0.518,5.066,16.174,-16.785
0.806,-0.182,0.576,-2.380,4.272,-15.015
0.796,-0.184,0.610,-4.028,-1.526,-6.897
0.771,-0.208,0.630,-0.916,-3.723,0.610
0.759,-0.232,0.604,1.831,-3.418,5.798
0.738,-0.223,0.559,-3.174,-9.583,5.798
0.731,-0.206,0.680,-11.658,-21.667,1.465
0.752,-0.220,0.724,-1.831,-22.522,0.244
0.754,-0.276,0.745,13.916,-16.846,1.282
0.735,-0.281,0.754,19.836,-10.620,4.639
0.693,-0.267,0.748,21.423,-5.554,6.592
0.671,-0.260,0.733,23.621,-1.892,5.188
0.655,-0.274,0.711,26.184,2.808,2.380
0.662,-0.281,0.689,28.564,8.423,-3.052
0.687,-0.290,0.655,31.372,14.771,-6.409
0.698,-0.310,0.621,33.997,20.508,-7.629
0.692,-0.322,0.600,35.278,24.902,-8.728
0.680,-0.344,0.575,34.668,25.391,-8.545
0.641,-0.365,0.562,30.579,23.560,-8.423
0.659,-0.375,0.561,25.635,21.179,-6.104
0.701,-0.365,0.562,21.423,18.188,-4.822
0.702,-0.365,0.556,19.714,13.062,-5.493
0.691,-0.357,0.540,20.508,10.803,-5.249
0.693,-0.354,0.534,22.827,11.597,-5.981
0.697,-0.360,0.525,28.198,13.489,-8.179
0.708,-0.361,0.521,36.621,16.052,-11.292
0.716,-0.362,0.514,48.279,18.738,-15.076
0.703,-0.373,0.501,62.256,21.790,-19.653
0.705,-0.399,0.498,77.209,26.184,-25.452
0.719,-0.423,0.504,90.210,29.236,-31.311
0.725,-0.458,0.507,99.121,28.015,-34.790
0.738,-0.495,0.517,103.638,26.306,-36.804
0.745,-0.516,0.520,104.858,26.428,-37.598
0.752,-0.528,0.522,105.164,27.954,-38.391
0.771,-0.538,0.526,106.262,29.846,-38.513
0.787,-0.565,0.533,108.704,31.738,-36.865
0.796,-0.602,0.531,108.154,32.959,-34.241
0.802,-0.646,0.527,99.976,32.043,-30.090
0.787,-0.663,0.522,83.740,27.832,-22.766
0.771,-0.670,0.515,63.171,22.461,-15.381
0.759,-0.657,0.506,41.809,18.066,-10.010
0.748,-0.639,0.489,23.743,15.686,-6.592
0.736,-0.624,0.471,10.620,13.672,-4.944
0.730,-0.617,0.448,2.319,10.925,-4.639
0.731,-0.602,0.428,-1.648,9.338,-4.883
0.735,-0.571,0.409,-1.404,10.010,-4.333
0.743,-0.544,0.400,3.418,11.414,-3.235
0.743,-0.532,0.397,10.864,13.977,-2.869
0.733,-0.519,0.386,18.005,16.846,-2.991
0.713,-0.513,0.375,23.254,19.653,-3.784
0.714,-0.511,0.362,26.672,21.851,-5.371
0.731,-0.530,0.347,29.236,23.621,-7.263
0.728,-0.555,0.336,31.006,24.414,-8.728
0.731,-0.573,0.330,30.518,24.170,-10.559
0.741,-0.584,0.324,27.832,21.912,-11.292
0.754,-0.590,0.323,24.658,19.226,-11.475
0.761,-0.590,0.325,20.813,16.968,-10.864
0.760,-0.599,0.324,17.029,15.320,-9.460
0.758,-0.607,0.322,13.733,13.733,-7.935
0.753,-0.612,0.323,10.437,11.597,-6.592
0.749,-0.616,0.325,7.996,9.460,-6.287
0.752,-0.629,0.323,6.348,8.057,-6.531
0.764,-0.640,0.318,4.883,6.226,-7.446
0.771,-0.648,0.314,3.357,3.662,-7.874
0.774,-0.650,0.317,1.709,1.404,-6.958
0.777,-0.641,0.319,0.854,0.732,-5.188
0.774,-0.628,0.319,0.854,0.916,-2.930
0.762,-0.617,0.320,1.587,0.916,-1.160
0.756,-0.612,0.327,2.075,0.488,-0.244
0.759,-0.608,0.336,1.587,-0.244,0.244
0.760,-0.595,0.340,0.610,-0.610,0.549
0.757,-0.582,0.342,0.305,-1.099,1.038
0.755,-0.575,0.352,1.221,-1.465,1.343
0.759,-0.576,0.354,2.991,-1.465,1.282
0.761,-0.581,0.350,5.493,-0.427,0.977
0.759,-0.581,0.342,7.385,1.343,1.099
0.761,-0.575,0.341,8.789,2.991,1.221
0.768,-0.559,0.338,10.559,4.272,0.793
0.773,-0.543,0.337,13.489,5.371,0.366
0.772,-0.539,0.337,17.578,6.470,0.000
0.770,-0.545,0.338,20.874,8.118,0.061
0.767,-0.564,0.341,23.071,10.071,-0.305
0.770,-0.592,0.338,24.170,12.024,-0.488
0.792,-0.608,0.339,24.536,14.954,-0.549
0.806,-0.633,0.341,25.146,17.090,0.610
0.820,-0.678,0.343,26.672,19.287,3.174
0.844,-0.708,0.340,27.405,25.146,7.812
0.871,-0.693,0.343,27.283,32.654,14.160
0.846,-0.670,0.322,30.212,39.673,19.714
0.810,-0.628,0.294,32.898,43.274,24.780
0.770,-0.606,0.269,33.386,43.091,26.672
0.720,-0.590,0.250,30.396,42.297,24.780
0.704,-0.561,0.231,23.743,42.053,18.982
0.669,-0.562,0.224,17.273,40.955,14.771
0.731,-0.588,0.198,13.855,39.978,11.536
0.789,-0.654,0.165,12.268,38.452,2.441
0.806,-0.697,0.133,6.897,33.142,-6.287
0.807,-0.725,0.108,-1.099,25.635,-8.667
0.800,-0.736,0.098,-9.827,17.761,-5.676
0.799,-0.744,0.103,-17.334,10.681,-1.282
0.806,-0.748,0.126,-23.071,5.554,3.479
0.830,-0.792,0.177,-27.893,3.174,10.620
0.854,-0.902,0.218,-32.410,1.953,18.860
0.860,-0.926,0.229,-42.419,3.052,26.428
0.838,-0.825,0.234,-57.861,6.348,36.011
0.805,-0.682,0.255,-70.679,6.775,49.805
0.774,-0.534,0.282,-74.951,3.967,61.401
0.773,-0.400,0.301,-70.251,1.221,67.505
0.780,-0.298,0.314,-59.998,0.732,67.566
0.790,-0.240,0.324,-47.607,5.554,61.157
0.803,-0.262,0.351,-35.400,13.245,49.622
0.819,-0.335,0.364,-27.100,18.677,31.372
0.825,-0.395,0.345,-26.367,22.400,12.329
0.828,-0.436,0.312,-31.372,25.574,-0.427
0.838,-0.445,0.270,-36.926,28.564,-6.836
0.850,-0.443,0.228,-38.635,31.555,-8.179
0.857,-0.449,0.190,-35.339,32.959,-6.531
0.849,-0.448,0.160,-29.480,32.532,-5.493
0.836,-0.448,0.143,-24.841,30.945,-5.737
0.826,-0.437,0.130,-21.729,28.015,-7.324
0.819,-0.415,0.116,-19.958,23.987,-9.033
0.809,-0.379,0.098,-19.348,20.386,-9.094
0.808,-0.347,0.085,-18.494,18.555,-7.751
0.802,-0.339,0.083,-17.883,15.808,-6.836
0.784,-0.359,0.088,-18.433,10.254,-7.568
0.766,-0.378,0.096,-21.606,3.662,-9.583
0.757,-0.403,0.104,-26.550,-1.221,-12.329
0.754,-0.426,0.097,-31.555,-4.822,-14.832
0.747,-0.435,0.066,-36.377,-7.812,-15.381
0.741,-0.433,0.030,-39.673,-10.681,-13.672
0.745,-0.415,0.005,-41.565,-14.648,-10.376
0.737,-0.385,-0.012,-42.175,-19.592,-6.409
0.715,-0.331,-0.034,-41.382,-24.109,-2.991
0.697,-0.283,-0.035,-39.124,-28.198,-1.465
0.687,-0.281,-0.011,-33.264,-33.203,-3.357
0.682,-0.303,0.019,-27.466,-39.612,-7.629
0.678,-0.315,0.048,-26.489,-45.898,-12.573
0.671,-0.315,0.064,-30.701,-51.758,-15.930
0.658,-0.328,0.062,-36.133,-58.777,-18.738
0.653,-0.362,0.066,-41.870,-68.054,-21.240
0.648,-0.398,0.082,-48.767,-78.247,-22.644
0.641,-0.437,0.128,-56.519,-88.074,-21.545
0.630,-0.491,0.197,-63.965,-97.229,-18.555
0.635,-0.523,0.265,-72.998,-104.553,-14.648
0.655,-0.523,0.321,-85.083,-109.741,-8.972
0.673,-0.507,0.359,-98.083,-112.610,-2.014
0.673,-0.479,0.384,-109.070,-114.075,6.042
0.679,-0.447,0.403,-116.333,-114.197,14.404
0.652,-0.425,0.410,-120.239,-114.868,20.508
0.633,-0.409,0.408,-121.643,-112.366,24.048
0.616,-0.407,0.409,-121.582,-106.628,25.391
0.566,-0.421,0.436,-119.629,-103.088,25.757
0.525,-0.445,0.505,-117.798,-107.239,26.855
0.535,-0.434,0.575,-117.798,-117.004,26.367
0.564,-0.415,0.655,-119.080,-125.732,26.367
0.596,-0.381,0.739,-117.798,-132.385,28.931
0.614,-0.342,0.822,-110.901,-137.512,33.447
0.614,-0.297,0.903,-99.060,-139.954,38.635
0.606,-0.255,0.984,-84.290,-139.343,43.640
0.600,-0.221,1.062,-66.528,-137.451,45.776
0.603,-0.195,1.146,-46.753,-134.277,44.067
0.603,-0.195,1.234,-26.978,-129.700,37.781
0.601,-0.215,1.323,-9.216,-123.596,28.870
0.614,-0.243,1.397,4.578,-114.746,19.653
0.643,-0.270,1.441,12.634,-101.990,10.437
0.668,-0.297,1.455,14.587,-84.778,2.380
0.683,-0.310,1.434,12.024,-63.660,-4.089
0.689,-0.311,1.387,8.362,-41.138,-9.521
0.681,-0.310,1.320,4.639,-20.386,-13.550
0.662,-0.323,1.241,0.610,-4.395,-16.541
0.651,-0.331,1.158,-4.089,5.859,-19.043
0.645,-0.332,1.081,-9.460,13.123,-20.935
0.635,-0.329,1.015,-13.977,17.273,-21.179
0.615,-0.329,0.968,-15.625,19.043,-19.714
0.596,-0.330,0.927,-14.099,19.836,-17.578
0.578,-0.330,0.893,-11.353,20.447,-16.235
0.556,-0.326,0.859,-8.728,21.790,-15.381
0.531,-0.331,0.830,-5.798,23.682,-15.137
0.508,-0.336,0.802,-3.052,25.391,-15.320
0.493,-0.338,0.776,-1.038,26.001,-15.503
0.487,-0.334,0.752,0.183,25.146,-15.442
0.491,-0.319,0.733,0.549,23.132,-15.320
0.500,-0.319,0.726,0.183,20.264,-15.320
0.501,-0.329,0.723,-1.099,15.869,-15.747
0.514,-0.336,0.728,-4.700,10.559,-15.625
0.532,-0.338,0.735,-9.949,4.944,-14.526
0.555,-0.336,0.747,-14.771,0.427,-12.756
0.574,-0.324,0.759,-17.822,-2.075,-10.193
0.580,-0.312,0.768,-18.372,-3.540,-7.507
0.576,-0.297,0.783,-16.541,-4.089,-5.676
0.566,-0.281,0.797,-13.489,-3.479,-5.066
0.560,-0.264,0.802,-10.315,-2.319,-6.042
0.557,-0.249,0.799,-7.019,-0.549,-7.935
0.558,-0.237,0.790,-3.113,1.831,-10.864
0.553,-0.244,0.789,1.343,4.150,-14.343
0.546,-0.259,0.789,5.005,5.554,-17.212
0.545,-0.274,0.793,7.019,5.737,-19.104
0.548,-0.280,0.794,7.202,5.615,-20.020
0.547,-0.277,0.793,6.775,5.127,-20.203
0.548,-0.274,0.795,7.141,4.883,-20.325
0.549,-0.280,0.794,8.179,5.188,-20.752
0.547,-0.285,0.791,9.216,5.676,-21.729
0.546,-0.292,0.790,9.766,6.104,-22.522
0.546,-0.300,0.786,10.010,6.775,-23.315
0.552,-0.308,0.779,9.521,7.324,-24.597
0.559,-0.323,0.775,8.728,7.812,-25.818
0.555,-0.340,0.771,7.385,7.629,-26.245
0.557,-0.353,0.770,5.676,6.714,-24.841
0.559,-0.358,0.771,4.272,5.554,-22.583
0.562,-0.363,0.778,3.357,4.211,-20.630
0.563,-0.365,0.786,3.418,2.686,-18.860
0.566,-0.366,0.798,4.211,1.648,-17.639
0.569,-0.364,0.808,4.700,1.343,-16.235
0.568,-0.354,0.815,4.761,1.404,-14.832
0.573,-0.346,0.818,4.395,2.014,-13.550
0.569,-0.335,0.817,4.211,3.174,-13.184
0.563,-0.327,0.813,4.028,4.456,-13.611
0.561,-0.320,0.802,3.662,6.287,-14.221
0.554,-0.318,0.794,2.686,8.301,-15.076
0.505,-0.316,0.771,1.892,9.705,-15.442
0.562,-0.329,0.801,0.793,14.893,-15.320
0.554,-0.342,0.791,0.366,12.146,-16.479
0.553,-0.364,0.790,0.183,8.545,-16.907
0.560,-0.362,0.791,-2.625,6.836,-17.212
0.565,-0.363,0.788,-4.028,6.775,-16.846
0.564,-0.367,0.785,-3.540,7.141,-16.418
0.562,-0.373,0.791,-2.869,7.263,-16.113
0.558,-0.372,0.796,-3.601,6.836,-15.747
0.563,-0.373,0.800,-4.822,6.592,-15.747
0.571,-0.395,0.802,-6.104,6.592,-15.686
0.579,-0.409,0.799,-8.057,6.592,-14.954
0.583,-0.405,0.794,-10.498,6.042,-13.184
0.583,-0.394,0.787,-11.536,5.859,-10.803
0.582,-0.384,0.780,-10.864,6.714,-8.545
0.576,-0.378,0.777,-8.911,7.874,-7.629
0.571,-0.375,0.773,-6.348,8.606,-7.385
0.574,-0.370,0.768,-4.517,9.155,-7.629
0.580,-0.367,0.763,-2.991,10.254,-8.240
0.580,-0.363,0.755,-1.953,11.169,-8.545
0.578,-0.368,0.753,-0.549,12.268,-8.789
0.573,-0.379,0.751,0.610,12.878,-8.789
0.574,-0.393,0.750,0.610,12.756,-8.423
0.580,-0.400,0.741,-0.854,12.390,-7.629
0.578,-0.391,0.730,-2.686,12.390,-5.798
0.574,-0.378,0.719,-3.052,11.841,-3.967
0.568,-0.367,0.712,-1.953,11.108,-3.479
0.561,-0.364,0.712,-0.122,10.681,-4.028
0.557,-0.367,0.716,1.221,10.376,-4.700
0.559,-0.373,0.722,1.831,9.705,-5.310
0.562,-0.375,0.729,1.587,8.728,-5.554
0.568,-0.373,0.739,0.671,7.751,-4.883
0.566,-0.364,0.744,-0.671,7.202,-3.967
0.563,-0.353,0.745,-2.136,7.019,-3.174
0.560,-0.341,0.742,-3.357,7.080,-2.502
0.553,-0.334,0.741,-4.150,6.775,-2.808
0.550,-0.339,0.739,-4.517,6.897,-3.845
0.550,-0.347,0.733,-5.127,7.080,-4.944
0.553,-0.349,0.727,-6.165,6.958,-5.493
0.558,-0.349,0.717,-7.080,6.836,-5.798
0.562,-0.347,0.707,-6.653,6.653,-5.981
0.563,-0.343,0.696,-5.737,6.348,-6.165
0.563,-0.339,0.689,-4.822,5.798,-6.409
0.561,-0.339,0.685,-4.211,4.883,-6.714
0.565,-0.341,0.689,-3.784,3.357,-7.141
0.574,-0.341,0.693,-3.906,1.831,-7.324
0.582,-0.342,0.698,-4.578,1.160,-7.324
0.584,-0.345,0.700,-5.188,0.793,-7.202
0.585,-0.350,0.702,-5.371,0.671,-7.141
0.583,-0.354,0.705,-5.737,0.427,-7.324
0.583,-0.355,0.706,-6.470,-0.122,-7.324
0.587,-0.348,0.707,-6.592,-0.366,-7.202
0.589,-0.343,0.708,-5.615,-0.549,-7.202
0.586,-0.340,0.711,-4.395,-1.038,-7.385
0.581,-0.340,0.719,-3.052,-1.221,-7.629
0.582,-0.343,0.729,-2.563,-1.404,-7.935
0.585,-0.349,0.734,-2.563,-1.526,-8.423
0.587,-0.357,0.739,-3.174,-1.282,-8.606
0.586,-0.366,0.743,-4.089,-1.221,-8.667
0.586,-0.366,0.746,-4.883,-1.343,-8.362
0.590,-0.358,0.746,-5.310,-1.465,-7.874
0.593,-0.347,0.743,-5.188,-1.221,-7.690
0.592,-0.340,0.742,-4.639,-0.793,-7.629
0.591,-0.341,0.742,-4.333,-0.549,-7.996
0.592,-0.347,0.741,-5.676,-0.488,-8.179
0.594,-0.347,0.741,-8.667,-0.916,-7.202
0.595,-0.339,0.738,-11.780,-1.648,-6.165
0.594,-0.327,0.738,-13.611,-2.441,-5.005
0.590,-0.316,0.745,-13.672,-3.052,-4.456
0.586,-0.313,0.758,-12.390,-3.235,-5.249
0.586,-0.317,0.770,-10.315,-3.113,-7.141
0.595,-0.320,0.779,-8.789,-2.075,-9.094
0.604,-0.322,0.781,-7.874,-0.916,-11.108
0.614,-0.322,0.781,-7.141,0.244,-12.207
0.619,-0.322,0.779,-6.531,1.099,-12.634
0.621,-0.323,0.776,-6.531,1.892,-13.245
0.619,-0.322,0.764,-6.775,2.991,-13.550
0.615,-0.320,0.752,-7.507,4.150,-13.794
0.611,-0.318,0.740,-8.728,4.639,-14.221
0.605,-0.315,0.733,-9.338,4.761,-14.343
0.598,-0.313,0.730,-9.521,4.333,-14.526
0.595,-0.313,0.733,-9.460,3.784,-14.832
0.594,-0.316,0.742,-8.789,3.235,-15.259
0.592,-0.319,0.750,-8.301,3.052,-15.869
0.592,-0.325,0.757,-7.935,3.052,-16.479
0.598,-0.331,0.761,-7.874,3.601,-17.090
0.599,-0.334,0.760,-8.423,3.967,-17.090
0.595,-0.332,0.755,-9.338,4.211,-16.907
0.593,-0.327,0.750,-10.193,4.700,-16.907
0.591,-0.321,0.746,-10.559,4.761,-16.907
0.586,-0.316,0.745,-10.620,4.944,-17.151
0.583,-0.312,0.748,-10.315,4.822,-17.578
0.580,-0.312,0.751,-10.315,4.761,-18.250
0.577,-0.311,0.758,-10.559,4.456,-18.738
0.576,-0.312,0.766,-11.230,4.211,-19.409
0.575,-0.310,0.775,-12.085,4.028,-19.592
0.576,-0.312,0.782,-12.573,4.150,-20.020
0.578,-0.318,0.784,-13.123,4.639,-21.118
0.580,-0.327,0.782,-13.489,5.493,-22.217
0.585,-0.339,0.773,-14.038,6.592,-23.071
0.586,-0.344,0.758,-14.771,7.751,-23.499
0.584,-0.344,0.747,-15.137,8.118,-23.315
0.583,-0.345,0.743,-14.709,7.874,-23.193
0.578,-0.348,0.742,-13.672,7.263,-23.071
0.571,-0.349,0.742,-13.245,6.714,-22.583
0.570,-0.350,0.746,-13.062,6.531,-22.583
0.568,-0.349,0.754,-13.062,6.348,-22.705
0.572,-0.347,0.766,-12.939,5.859,-22.766
0.576,-0.348,0.776,-12.390,5.737,-23.010
0.579,-0.353,0.783,-12.390,6.104,-23.315
0.581,-0.359,0.788,-13.062,6.531,-23.682
0.585,-0.363,0.786,-13.977,7.263,-24.109
0.588,-0.364,0.780,-14.893,7.935,-24.353
0.586,-0.365,0.773,-15.198,8.728,-24.109
0.584,-0.364,0.766,-14.954,9.216,-23.865
0.579,-0.363,0.760,-14.343,9.460,-23.621
0.575,-0.366,0.756,-13.733,9.888,-23.315
0.571,-0.370,0.758,-13.428,9.766,-23.437
0.571,-0.375,0.756,-13.306,9.766,-23.499
0.573,-0.385,0.751,-13.550,9.888,-23.254
0.572,-0.391,0.746,-14.221,10.193,-22.827
0.570,-0.391,0.737,-15.015,10.071,-21.912
0.568,-0.389,0.731,-15.076,9.705,-21.301
0.565,-0.385,0.726,-14.832,9.277,-20.813
0.561,-0.380,0.724,-13.977,8.850,-20.386
0.559,-0.379,0.726,-12.329,8.362,-20.447
0.557,-0.378,0.733,-10.986,7.874,-20.691
0.555,-0.381,0.744,-10.071,7.507,-20.813
0.555,-0.384,0.752,-9.644,7.446,-20.935
0.558,-0.389,0.760,-10.193,7.446,-20.813
0.557,-0.390,0.764,-11.658,7.385,-20.386
0.556,-0.392,0.768,-13.000,7.080,-19.836
0.557,-0.397,0.767,-14.038,7.019,-19.470
0.559,-0.402,0.766,-14.771,7.385,-19.165
0.560,-0.399,0.758,-15.259,7.568,-18.921
0.559,-0.392,0.750,-14.832,7.568,-18.250
0.554,-0.387,0.744,-13.489,7.568,-17.883
0.547,-0.387,0.742,-11.780,7.812,-17.700
0.538,-0.386,0.737,-10.559,7.874,-17.883
0.532,-0.387,0.731,-10.254,7.812,-17.944
0.524,-0.389,0.728,-10.254,7.812,-17.822
0.517,-0.387,0.724,-10.681,7.141,-17.273
0.513,-0.383,0.721,-11.292,6.226,-16.968
0.508,-0.380,0.716,-11.780,5.371,-16.785
0.506,-0.384,0.716,-11.841,4.333,-17.090
0.506,-0.394,0.718,-11.780,3.357,-17.334
0.515,-0.401,0.719,-12.085,2.441,-17.822
0.524,-0.407,0.718,-12.756,1.709,-17.639
0.533,-0.412,0.720,-12.878,1.038,-17.090
0.539,-0.417,0.726,-12.390,0.122,-16.235
0.543,-0.423,0.732,-11.536,-0.549,-15.625
0.547,-0.426,0.736,-10.315,-0.671,-15.198
0.549,-0.422,0.736,-9.399,-0.671,-14.587
0.547,-0.418,0.735,-8.606,-0.488,-13.977
0.545,-0.419,0.741,-7.751,-0.488,-13.672
0.547,-0.418,0.748,-6.897,-0.977,-13.367
0.552,-0.415,0.757,-6.897,-1.526,-13.367
0.560,-0.414,0.767,-7.263,-1.709,-12.939
0.566,-0.418,0.778,-7.324,-1.770,-12.573
0.572,-0.428,0.782,-7.202,-1.404,-12.207
0.579,-0.437,0.780,-7.874,-0.977,-11.353
0.586,-0.441,0.774,-8.667,-0.549,-10.437
0.589,-0.437,0.766,-8.972,0.061,-9.216
0.589,-0.432,0.761,-8.301,0.061,-7.935
0.587,-0.428,0.761,-7.263,0.122,-6.775
0.586,-0.425,0.760,-6.470,0.122,-5.920
0.580,-0.431,0.759,-7.202,-0.305,-4.639
0.578,-0.436,0.758,-10.254,-1.038,-3.296
0.564,-0.416,0.765,-15.320,-2.197,-1.892
0.571,-0.409,0.769,-17.395,-2.747,-0.977
0.568,-0.407,0.773,-14.832,-2.625,-0.427
0.569,-0.421,0.760,-12.451,-2.380,-0.366
0.571,-0.441,0.744,-14.832,-3.357,0.122
0.572,-0.432,0.748,-19.531,-5.798,2.441
0.563,-0.407,0.755,-21.179,-7.935,6.042
0.550,-0.385,0.755,-18.494,-8.301,8.606
0.534,-0.375,0.745,-14.587,-7.019,9.888
0.531,-0.390,0.761,-11.719,-5.554,9.644
0.528,-0.415,0.759,-9.827,-3.784,8.972
0.530,-0.418,0.766,-10.071,-2.930,10.132
0.540,-0.409,0.768,-9.460,-2.747,12.207
0.543,-0.397,0.776,-8.179,-2.869,14.221
0.540,-0.383,0.786,-6.165,-2.625,15.381
0.540,-0.382,0.793,-4.089,-1.831,15.320
0.544,-0.405,0.801,-3.235,-0.549,14.526
0.557,-0.421,0.801,-3.967,0.793,14.160
0.572,-0.419,0.795,-5.310,1.099,15.015
0.582,-0.408,0.783,-6.042,1.099,16.846
0.583,-0.408,0.776,-5.249,1.526,19.470
0.583,-0.418,0.768,-2.808,2.136,21.545
0.580,-0.428,0.764,-0.061,2.136,23.682
0.575,-0.444,0.774,1.343,1.221,26.123
0.573,-0.454,0.788,0.793,0.610,28.503
0.577,-0.444,0.797,-0.366,0.244,30.823
0.589,-0.425,0.802,-0.061,0.427,32.898
0.594,-0.417,0.802,1.160,0.977,34.485
0.594,-0.421,0.806,2.808,1.953,35.339
0.595,-0.426,0.809,4.089,3.235,36.438
0.593,-0.427,0.805,4.456,4.211,38.208
0.594,-0.417,0.796,4.028,4.211,39.490
0.599,-0.410,0.787,3.479,3.296,40.222
0.604,-0.430,0.791,4.150,2.563,40.344
0.613,-0.454,0.793,4.639,1.953,40.466
0.622,-0.452,0.785,4.761,2.014,41.870
0.632,-0.460,0.781,5.005,2.319,44.434
0.650,-0.513,0.805,5.798,3.601,47.363
0.670,-0.538,0.815,6.348,6.348,52.063
0.684,-0.527,0.807,6.714,10.986,60.669
0.674,-0.486,0.787,6.653,14.587,71.228
0.640,-0.427,0.776,6.409,15.930,78.979
0.609,-0.376,0.754,7.507,16.785,82.092
0.589,-0.325,0.735,8.850,17.883,80.444
0.576,-0.287,0.719,11.108,18.372,75.684
0.568,-0.267,0.718,15.015,18.005,69.458
0.567,-0.252,0.701,18.250,15.198,62.439

-0.015,0.075,1.086,-83.557,-129.089,-58.350
-0.046,0.203,1.130,-95.886,-124.084,-92.712
0.015,0.258,1.354,-94.421,-85.266,-136.292
0.105,0.187,1.485,-69.031,-52.917,-158.691
0.015,0.282,1.480,-47.607,-29.114,-154.602
-0.012,-0.002,1.366,-19.714,-13.123,-158.020
0.013,-0.212,1.240,-23.987,-7.080,-144.287
0.014,-0.266,1.236,-41.626,-19.409,-106.079
0.089,-0.228,1.331,-35.645,-17.822,-70.740
0.142,-0.175,1.324,-14.893,-4.822,-37.964
0.097,-0.150,1.171,14.221,5.859,-7.751
0.054,-0.195,1.011,50.293,11.536,18.005
-0.123,-0.242,0.949,77.881,9.094,47.974
-0.076,0.362,1.101,79.407,19.531,83.191
0.268,0.078,1.351,106.995,45.593,71.533
0.176,0.094,1.365,142.944,57.983,22.583
0.065,-0.025,1.032,154.419,51.575,-0.305
0.066,-0.083,0.986,142.395,63.171,-7.629
0.096,-0.120,0.927,125.244,78.430,-13.306
0.042,-0.149,0.918,110.901,71.228,-25.024
0.296,-0.255,0.706,92.102,46.265,-40.100
-0.115,-0.234,0.904,59.509,4.578,-62.561
-0.153,-0.264,1.046,48.706,-5.432,-69.214
-0.047,-0.370,1.140,53.833,1.221,-75.867
0.051,-0.470,1.140,41.565,22.766,-79.956
0.082,-0.553,1.068,28.931,46.204,-82.031
0.102,-0.565,0.992,16.602,60.608,-77.881
0.161,-0.599,0.894,0.671,68.054,-70.618
0.244,-0.585,0.765,-12.878,67.871,-58.716
0.256,-0.579,0.753,-17.212,52.917,-45.288
0.292,-0.568,0.742,-17.273,42.908,-30.884
0.283,-0.573,0.766,-14.771,30.884,-18.921
0.255,-0.544,0.760,-12.695,22.339,-6.653
0.273,-0.557,0.764,-4.944,13.733,2.808
0.261,-0.577,0.782,3.723,4.333,13.245
0.222,-0.582,0.762,6.714,-2.197,23.499
0.188,-0.538,0.778,8.057,-8.606,34.058
0.164,-0.501,0.796,9.644,-10.681,40.527
0.155,-0.506,0.827,14.465,-11.353,41.748
0.183,-0.537,0.875,17.273,-10.071,41.077
0.176,-0.594,0.909,14.526,-7.080,40.588
0.175,-0.655,0.939,10.376,-3.174,42.786
0.198,-0.637,0.941,7.080,3.235,49.316
0.216,-0.615,0.916,6.104,10.620,56.824
0.230,-0.601,0.903,6.836,14.038,64.697
0.181,-0.554,0.873,5.066,12.207,71.167
0.182,-0.527,0.900,5.066,3.357,73.242
0.183,-0.494,0.940,4.272,-2.380,74.890
0.171,-0.461,0.967,2.686,-4.639,76.477
0.161,-0.426,0.979,1.587,-3.601,77.576
0.141,-0.393,0.974,0.366,-1.038,76.904
0.136,-0.394,0.961,0.671,-1.587,73.792
0.129,-0.362,0.983,3.601,-3.540,71.289
0.152,-0.354,0.983,5.432,-2.258,67.871
0.157,-0.358,0.971,7.507,-2.747,64.148
0.164,-0.354,0.976,7.751,-3.174,61.462
0.167,-0.350,0.987,6.897,-3.418,59.814
0.174,-0.345,0.996,6.348,-2.441,59.753
0.171,-0.323,0.991,5.127,0.427,61.035
0.178,-0.312,0.970,4.089,2.930,61.279
0.195,-0.286,0.962,5.737,2.686,61.096
0.197,-0.276,0.945,6.165,1.953,60.425
0.200,-0.268,0.917,6.531,0.366,59.937
0.197,-0.257,0.904,5.798,-2.625,59.570
0.196,-0.244,0.906,4.395,-5.432,58.594
0.199,-0.229,0.917,3.540,-6.592,57.983
0.196,-0.216,0.925,3.845,-5.371,57.373
0.193,-0.207,0.927,5.554,-3.113,56.396
0.198,-0.202,0.919,8.118,-1.404,55.176
0.209,-0.198,0.911,10.742,-0.916,53.772
0.216,-0.195,0.914,12.329,-2.075,52.368
0.229,-0.196,0.932,12.207,-4.700,51.270
0.194,-0.181,0.932,10.010,-5.859,49.866
0.208,-0.172,0.952,9.583,-6.836,47.424
0.212,-0.147,0.955,8.728,-5.188,46.631
0.227,-0.136,0.947,10.132,-3.113,45.166
0.232,-0.136,0.940,11.597,-2.747,43.152
0.235,-0.138,0.933,12.207,-3.174,41.260
0.233,-0.135,0.933,12.756,-4.578,40.771
0.234,-0.123,0.942,12.024,-6.042,40.527
0.233,-0.102,0.955,11.292,-6.653,40.466
0.225,-0.085,0.965,11.536,-5.615,39.124
0.223,-0.079,0.966,12.878,-3.174,35.767
0.232,-0.087,0.960,14.832,-0.793,31.494
0.242,-0.103,0.956,15.869,0.610,27.161
0.252,-0.116,0.953,15.442,0.732,23.376
0.270,-0.131,0.958,14.893,0.244,20.508
0.264,-0.140,0.959,13.794,0.183,18.616
0.265,-0.156,0.967,13.611,-0.793,15.625
0.274,-0.170,0.976,13.977,-1.038,13.184
0.290,-0.175,0.981,13.672,0.671,12.573
0.299,-0.189,0.965,13.428,2.502,12.390
0.300,-0.206,0.943,12.756,3.235,11.230
0.308,-0.223,0.924,11.108,2.319,9.949
0.314,-0.235,0.912,9.094,0.793,9.033
0.319,-0.249,0.905,8.301,-0.488,7.996
0.325,-0.259,0.903,8.240,-0.732,7.385
0.325,-0.260,0.903,8.423,0.000,7.751
0.331,-0.259,0.903,9.766,1.160,8.057
0.334,-0.254,0.903,11.230,2.075,8.911
0.344,-0.244,0.896,12.390,1.953,10.254
0.340,-0.248,0.895,12.329,-1.282,10.071
0.330,-0.246,0.923,9.705,-6.226,7.690
0.341,-0.237,0.962,7.080,-7.690,7.019
0.344,-0.237,0.975,7.751,-5.188,6.897
0.339,-0.248,0.974,9.888,-0.977,6.409
0.336,-0.258,0.970,11.108,3.723,5.737
0.337,-0.263,0.966,12.329,7.874,5.188
0.336,-0.261,0.956,13.489,11.169,5.188
0.339,-0.263,0.948,14.832,13.550,4.395
0.363,-0.274,0.947,15.198,14.709,2.136
0.379,-0.287,0.943,14.343,14.587,0.916
0.388,-0.306,0.937,13.306,13.428,0.244
0.391,-0.315,0.925,11.963,12.573,1.404
0.386,-0.317,0.919,10.681,12.207,4.089
0.380,-0.307,0.916,9.766,12.756,6.470
0.373,-0.292,0.908,10.132,14.221,8.545
0.374,-0.282,0.903,11.719,15.747,9.338
0.378,-0.275,0.901,13.489,17.090,9.644
0.391,-0.275,0.887,14.404,17.639,9.583
0.392,-0.283,0.902,13.855,15.442,7.690
0.387,-0.288,0.910,12.817,12.329,5.432
0.396,-0.294,0.919,10.681,9.399,3.296
0.411,-0.297,0.927,8.240,8.179,2.075
0.416,-0.292,0.928,6.714,9.460,1.831
0.418,-0.289,0.920,6.775,11.719,1.770
0.423,-0.293,0.915,7.874,14.404,2.258
0.423,-0.294,0.910,8.972,16.968,3.296
0.423,-0.287,0.913,9.827,19.897,5.005
0.427,-0.277,0.915,10.071,23.193,7.141
0.426,-0.267,0.918,10.010,25.635,8.179
0.420,-0.261,0.929,9.583,27.161,7.751
0.414,-0.259,0.935,9.277,28.442,5.859
0.418,-0.266,0.937,9.949,30.212,2.808
0.446,-0.278,0.921,10.376,29.053,-1.465
0.466,-0.293,0.911,8.362,25.818,-5.676
0.458,-0.307,0.892,6.226,25.330,-5.981
0.449,-0.321,0.869,6.714,28.015,-4.700
0.436,-0.337,0.842,9.460,31.250,-3.174
0.421,-0.356,0.823,12.451,32.715,-1.465
0.399,-0.358,0.812,13.733,32.471,0.427
0.391,-0.347,0.804,13.672,31.372,1.465
0.387,-0.339,0.793,13.184,29.480,1.892
0.390,-0.339,0.807,12.024,26.611,0.977
0.398,-0.350,0.822,10.498,24.048,-1.099
0.418,-0.363,0.830,8.362,23.926,-3.540
0.449,-0.376,0.832,6.165,25.452,-6.165
0.473,-0.388,0.835,5.493,28.259,-7.568
0.507,-0.418,0.793,7.263,31.616,-7.751
0.536,-0.447,0.743,6.714,32.104,-6.836
0.519,-0.437,0.759,2.991,27.771,-5.249
0.516,-0.448,0.743,4.028,23.193,-2.563
0.518,-0.446,0.736,5.005,19.043,0.549
0.515,-0.434,0.736,5.249,15.259,3.662
0.508,-0.418,0.731,6.287,12.634,6.653
0.506,-0.399,0.724,7.568,11.169,8.362
0.512,-0.380,0.720,8.484,9.644,8.728
0.517,-0.369,0.721,9.644,7.446,8.545
0.518,-0.370,0.731,10.010,4.944,8.179
0.521,-0.370,0.741,9.644,2.319,7.996
0.528,-0.366,0.746,7.996,0.488,8.240
0.530,-0.361,0.745,5.737,-1.099,8.667
0.523,-0.365,0.744,3.418,-4.150,10.010
0.510,-0.359,0.751,-0.183,-8.423,11.963
0.503,-0.337,0.752,-3.967,-11.658,13.550
0.500,-0.316,0.754,-5.310,-13.245,14.465
0.485,-0.307,0.768,-5.249,-14.648,14.099
0.476,-0.287,0.783,-5.615,-15.503,12.573
0.473,-0.263,0.791,-5.737,-14.221,10.254
0.475,-0.254,0.800,-3.662,-11.353,8.057
0.468,-0.252,0.809,-0.183,-8.240,6.775
0.457,-0.251,0.823,2.747,-6.226,5.371
0.456,-0.249,0.838,4.150,-4.639,3.723
0.459,-0.241,0.847,3.906,-3.235,1.892
0.465,-0.238,0.854,3.418,-2.136,-0.366
0.473,-0.249,0.858,3.235,-1.709,-2.869
0.483,-0.274,0.859,2.625,-2.625,-5.371
0.494,-0.299,0.862,0.427,-4.272,-7.629
0.498,-0.312,0.861,-3.967,-5.432,-7.751
0.498,-0.319,0.857,-7.690,-5.066,-6.958
0.497,-0.320,0.845,-9.277,-3.784,-6.592
0.495,-0.319,0.838,-8.789,-2.319,-6.165
0.495,-0.323,0.834,-6.958,-1.038,-5.859
0.491,-0.329,0.827,-4.578,-0.122,-6.348
0.488,-0.336,0.821,-2.808,0.488,-6.958
0.486,-0.337,0.813,-2.197,0.916,-7.385
0.492,-0.338,0.804,-2.075,1.343,-7.568
0.494,-0.342,0.796,-1.892,1.282,-7.568
0.497,-0.353,0.793,-1.160,0.671,-7.690
0.497,-0.361,0.798,-0.916,-0.488,-7.690
0.500,-0.361,0.801,-1.343,-0.977,-7.629
0.502,-0.366,0.805,-1.038,-1.038,-7.324
0.501,-0.375,0.814,-0.061,-1.465,-6.836
0.499,-0.381,0.827,0.916,-1.770,-6.348
0.498,-0.382,0.847,1.343,-1.648,-5.737
0.500,-0.382,0.859,1.404,-0.732,-5.310
0.495,-0.389,0.865,1.404,0.122,-4.883
0.485,-0.392,0.870,0.793,0.488,-4.211
0.480,-0.386,0.876,-0.366,0.732,-3.418
0.480,-0.381,0.882,-0.977,1.465,-3.174
0.478,-0.379,0.876,-1.160,3.479,-3.540
0.475,-0.378,0.865,-0.916,5.859,-4.028
0.472,-0.381,0.851,-0.854,7.568,-4.456
0.471,-0.385,0.837,-0.610,7.935,-4.883
0.475,-0.385,0.822,-0.977,7.141,-5.249
0.479,-0.384,0.812,-1.099,6.165,-4.822
0.477,-0.379,0.801,-1.160,5.554,-3.845
0.482,-0.381,0.794,-0.549,4.089,-3.113
0.480,-0.380,0.796,-0.183,1.953,-2.319
0.482,-0.369,0.800,-0.427,1.343,-1.404
0.485,-0.358,0.798,-0.916,1.587,-1.099
0.486,-0.353,0.802,-0.732,2.197,-1.221
0.487,-0.353,0.810,-0.061,2.441,-1.648
0.492,-0.355,0.816,-0.122,2.441,-2.319
0.496,-0.353,0.818,-0.732,3.296,-2.747
0.495,-0.359,0.823,-1.282,4.211,-2.808
0.499,-0.369,0.825,-1.221,5.188,-3.052
0.502,-0.377,0.827,-0.854,5.798,-3.357
0.507,-0.376,0.825,-1.221,6.104,-3.418
0.507,-0.373,0.818,-1.404,6.042,-2.991
0.504,-0.373,0.811,-1.465,5.005,-2.502
0.501,-0.375,0.807,-1.648,3.357,-1.648
0.502,-0.371,0.812,-2.258,1.404,-0.916
0.498,-0.364,0.825,-2.808,-0.549,-0.122
0.487,-0.350,0.841,-3.967,-1.282,0.916
0.488,-0.342,0.852,-4.578,-0.183,0.977
0.494,-0.345,0.859,-4.395,1.770,0.061
0.496,-0.349,0.864,-4.211,3.723,-0.732
0.501,-0.358,0.873,-3.357,5.554,-1.404
0.512,-0.366,0.873,-2.930,7.263,-1.953
0.523,-0.374,0.861,-2.747,8.850,-1.953
0.523,-0.380,0.843,-2.625,9.460,-1.343
0.520,-0.385,0.833,-2.869,8.362,-0.732
0.511,-0.389,0.830,-3.296,6.531,0.061
0.509,-0.384,0.835,-5.066,6.348,1.465
0.516,-0.371,0.837,-7.019,7.263,1.831
0.517,-0.361,0.827,-7.263,8.118,1.892
0.516,-0.361,0.821,-5.493,9.277,1.648
0.517,-0.364,0.816,-3.479,9.888,1.404
0.520,-0.360,0.802,-2.380,10.132,1.099
0.519,-0.363,0.787,-2.502,9.521,0.854
0.509,-0.361,0.784,-3.784,8.301,1.282
0.508,-0.354,0.788,-5.005,7.446,1.831
0.519,-0.349,0.789,-5.798,7.446,1.526
0.526,-0.344,0.789,-5.737,8.728,1.160
0.532,-0.339,0.784,-4.761,10.925,0.488
0.538,-0.335,0.769,-2.808,13.550,-0.061
0.543,-0.331,0.753,-0.488,15.869,-0.305
0.540,-0.322,0.733,1.221,17.273,-0.305
0.549,-0.311,0.707,3.052,17.700,-0.427
0.556,-0.307,0.683,4.700,15.869,0.061
0.556,-0.305,0.671,4.761,11.780,0.610
0.550,-0.297,0.670,2.747,6.714,1.343
0.541,-0.285,0.677,-1.099,3.540,1.892
0.535,-0.274,0.684,-4.700,2.197,1.831
0.542,-0.272,0.693,-6.653,1.770,0.610
0.558,-0.277,0.709,-6.226,1.099,-1.099
0.569,-0.289,0.731,-5.066,0.793,-2.380
0.571,-0.302,0.755,-3.540,1.526,-2.930
0.561,-0.308,0.783,-2.747,3.052,-2.380
0.561,-0.307,0.809,-3.296,4.089,-1.892
0.567,-0.310,0.833,-4.150,4.211,-2.075
0.576,-0.318,0.862,-4.639,4.700,-3.174
0.588,-0.321,0.885,-4.700,5.554,-3.357
0.592,-0.322,0.905,-5.127,6.836,-2.930
0.590,-0.323,0.919,-6.531,7.568,-1.953
0.590,-0.327,0.942,-7.324,5.798,-1.526
0.582,-0.324,0.978,-9.155,3.479,-0.916
0.583,-0.320,1.011,-11.719,3.357,-0.793
0.582,-0.333,1.040,-13.794,5.737,-1.221
0.585,-0.343,1.062,-14.832,9.277,-2.625
0.591,-0.353,1.075,-15.259,13.428,-3.784
0.588,-0.349,1.067,-14.587,18.127,-2.930
0.581,-0.330,1.046,-13.550,23.926,-1.404
0.561,-0.304,1.003,-11.902,30.701,-0.610
0.536,-0.277,0.938,-10.437,37.354,-0.916
0.530,-0.266,0.867,-9.094,42.358,-3.357
0.548,-0.276,0.807,-8.057,45.349,-7.141
0.571,-0.294,0.769,-7.446,46.204,-10.437
0.590,-0.320,0.754,-7.019,44.617,-12.207
0.607,-0.358,0.766,-6.531,41.016,-12.573
0.629,-0.388,0.790,-6.958,37.964,-11.902
0.662,-0.405,0.805,-7.935,37.903,-10.681
0.653,-0.411,0.787,-8.667,38.452,-7.935
0.640,-0.408,0.762,-9.033,39.490,-3.601
0.639,-0.390,0.725,-8.728,39.368,-0.549
0.634,-0.355,0.679,-8.362,37.781,1.770
0.618,-0.310,0.638,-8.057,37.476,3.906
0.612,-0.270,0.599,-7.263,39.307,4.272
0.613,-0.246,0.556,-5.798,42.358,2.747
0.606,-0.235,0.512,-4.333,45.349,1.038
0.584,-0.236,0.478,-4.456,46.509,-0.366
0.549,-0.245,0.470,-6.470,44.800,-0.793
0.545,-0.245,0.474,-9.888,40.100,-1.038
0.566,-0.252,0.484,-13.794,33.630,-2.625
0.594,-0.254,0.503,-18.433,26.611,-4.150
0.638,-0.249,0.519,-21.484,21.484,-4.944
0.669,-0.247,0.527,-22.339,17.700,-3.967
0.678,-0.245,0.534,-22.339,14.648,-2.502
0.665,-0.236,0.540,-24.231,11.658,-1.160
0.661,-0.219,0.535,-28.076,8.362,-0.793
0.656,-0.203,0.527,-32.471,5.554,-0.977
0.635,-0.196,0.538,-37.231,3.540,-1.648
0.625,-0.192,0.562,-40.955,1.404,-2.686
0.633,-0.201,0.592,-42.725,-0.183,-4.700
0.640,-0.214,0.630,-44.189,-1.587,-6.714
0.654,-0.216,0.666,-46.143,-3.235,-7.935
0.673,-0.220,0.695,-46.326,-4.272,-8.728
0.676,-0.224,0.723,-44.739,-5.310,-8.484
0.673,-0.216,0.751,-42.725,-6.042,-7.996
0.665,-0.204,0.771,-41.382,-5.737,-7.080
0.662,-0.198,0.784,-39.429,-4.272,-7.202
0.666,-0.196,0.789,-37.170,-2.686,-8.606
0.673,-0.194,0.784,-34.912,-1.465,-10.803
0.677,-0.190,0.774,-32.715,0.183,-12.451
0.670,-0.195,0.761,-29.358,2.747,-13.550
0.660,-0.213,0.752,-25.085,5.371,-14.709
0.660,-0.231,0.750,-22.095,5.676,-15.442
0.671,-0.239,0.755,-21.118,5.493,-16.113
0.677,-0.238,0.760,-20.447,6.042,-16.418
0.679,-0.233,0.762,-18.311,7.751,-16.418
0.680,-0.230,0.753,-15.259,9.644,-16.357
0.679,-0.230,0.736,-13.184,11.230,-15.991
0.667,-0.223,0.705,-12.512,11.902,-15.747
0.666,-0.219,0.669,-12.268,11.597,-16.113
0.667,-0.219,0.629,-11.230,10.620,-16.724
0.665,-0.219,0.587,-9.949,9.888,-16.785
0.662,-0.216,0.546,-9.277,8.545,-16.479
0.657,-0.210,0.507,-8.972,6.775,-15.991
0.650,-0.200,0.477,-9.338,5.066,-15.076
0.639,-0.193,0.446,-10.559,3.601,-13.855
0.616,-0.187,0.420,-12.939,2.563,-12.451
0.590,-0.183,0.408,-15.198,0.122,-11.353
0.582,-0.171,0.411,-16.113,-4.272,-12.207
0.582,-0.168,0.424,-14.954,-10.193,-14.465
0.595,-0.171,0.454,-12.146,-16.052,-17.517
0.600,-0.197,0.501,-7.935,-21.301,-19.409
0.618,-0.227,0.550,-4.517,-24.963,-21.301
0.642,-0.240,0.580,-3.235,-26.733,-22.156
0.653,-0.239,0.593,-2.686,-26.917,-21.790
0.643,-0.226,0.590,-2.258,-26.306,-19.836
0.626,-0.210,0.567,-2.319,-25.635,-17.822
0.610,-0.205,0.548,-4.883,-25.452,-17.090
0.602,-0.204,0.530,-10.803,-25.513,-16.541
0.579,-0.201,0.514,-20.325,-26.184,-14.648
0.540,-0.192,0.502,-31.189,-29.663,-11.353
0.507,-0.189,0.512,-40.833,-37.292,-8.911
0.481,-0.159,0.531,-48.950,-47.607,-9.216
0.492,-0.140,0.563,-53.650,-55.664,-10.071
0.508,-0.124,0.600,-53.162,-61.096,-12.085
0.515,-0.129,0.635,-49.255,-62.561,-13.367
0.505,-0.139,0.667,-45.776,-61.768,-13.123
0.493,-0.132,0.695,-45.471,-60.791,-11.658
0.479,-0.138,0.722,-47.913,-61.279,-9.949
0.431,-0.136,0.767,-53.101,-62.805,-6.470
0.392,-0.104,0.832,-59.875,-66.833,-2.563
0.391,-0.074,0.900,-64.026,-72.693,-1.099
0.419,-0.071,0.967,-65.979,-78.918,-1.709
0.445,-0.068,1.015,-67.993,-83.618,-2.563
0.465,-0.058,1.051,-68.665,-85.754,-3.174
0.465,-0.057,1.074,-66.711,-84.290,-4.089
0.462,-0.040,1.077,-62.927,-78.308,-4.456
0.426,-0.050,1.068,-56.824,-70.251,-6.287
0.401,-0.059,1.064,-49.500,-63.110,-10.193
0.377,-0.034,1.058,-42.480,-59.265,-9.277
0.372,-0.036,1.072,-30.762,-57.068,-11.292
0.366,-0.043,1.097,-18.860,-54.871,-13.794
0.377,-0.032,1.123,-8.484,-52.368,-16.296
0.391,-0.041,1.154,3.052,-49.194,-20.020
0.402,-0.055,1.192,14.404,-45.227,-23.010
0.416,-0.060,1.230,23.682,-40.833,-25.635
0.435,-0.069,1.262,29.053,-36.255,-28.076
0.445,-0.088,1.290,29.785,-32.227,-30.273
0.447,-0.101,1.314,25.696,-29.297,-31.982
0.447,-0.134,1.318,18.555,-26.428,-33.936
0.452,-0.165,1.310,8.850,-21.057,-35.706
0.456,-0.179,1.260,-1.282,-13.184,-37.048
0.451,-0.188,1.180,-9.033,-4.150,-38.330
0.433,-0.203,1.098,-11.841,2.930,-38.940
0.409,-0.216,1.033,-9.766,7.996,-39.001
0.392,-0.232,0.991,-5.127,10.803,-38.696
0.370,-0.249,0.962,0.427,12.878,-38.635
0.355,-0.267,0.939,5.493,14.648,-39.124
0.356,-0.287,0.915,10.681,16.052,-39.917
0.360,-0.308,0.895,15.381,17.273,-39.917
0.365,-0.320,0.875,17.639,17.639,-38.696
0.371,-0.331,0.857,19.287,17.151,-37.231
0.377,-0.342,0.842,20.325,15.198,-35.522
0.388,-0.351,0.833,20.325,11.841,-33.752
0.403,-0.356,0.829,19.104,8.545,-31.860
0.419,-0.367,0.829,16.418,6.348,-29.663
0.428,-0.375,0.831,13.916,4.272,-26.062
0.435,-0.383,0.839,11.719,1.526,-21.912
0.445,-0.389,0.852,9.644,-1.465,-18.188
0.458,-0.388,0.863,8.057,-3.357,-14.526
0.464,-0.385,0.867,7.202,-3.601,-10.742
0.462,-0.381,0.866,7.568,-2.869,-6.897
0.454,-0.375,0.866,7.812,-2.258,-2.808
0.446,-0.358,0.861,8.240,-2.075,0.488
0.436,-0.335,0.860,8.667,-2.441,3.784
0.424,-0.324,0.866,9.399,-4.150,6.104
0.414,-0.313,0.879,9.521,-7.141,7.507
0.416,-0.297,0.898,8.057,-9.033,8.484
0.421,-0.285,0.905,6.409,-8.606,8.789
0.425,-0.280,0.897,5.920,-6.775,9.155
0.422,-0.278,0.880,6.287,-6.165,9.827
0.414,-0.277,0.868,6.775,-7.874,10.681
0.407,-0.267,0.868,6.287,-10.010,12.024
0.399,-0.249,0.864,4.883,-10.193,13.367
0.394,-0.238,0.859,4.578,-8.789,14.099
0.390,-0.229,0.855,5.432,-8.057,14.709
0.386,-0.224,0.865,6.653,-8.972,15.015
0.385,-0.219,0.883,7.874,-10.132,14.893
0.384,-0.217,0.905,8.606,-10.010,15.015
0.387,-0.212,0.921,8.728,-9.094,15.198
0.392,-0.204,0.929,8.911,-8.057,15.076
0.392,-0.196,0.934,8.911,-7.996,14.954
0.396,-0.185,0.935,8.606,-7.812,14.404
0.393,-0.175,0.930,8.118,-7.263,14.099
0.383,-0.174,0.926,7.751,-6.714,13.733
0.383,-0.173,0.923,7.507,-6.958,13.245
0.387,-0.174,0.928,7.080,-8.362,12.573
0.390,-0.177,0.942,6.042,-9.277,11.719
0.394,-0.184,0.948,5.066,-8.606,10.559
0.397,-0.189,0.945,4.089,-7.202,9.705
0.401,-0.187,0.938,3.357,-6.348,9.521
0.398,-0.183,0.934,3.601,-5.493,9.644
0.391,-0.182,0.931,4.150,-4.333,9.949
0.386,-0.181,0.929,4.517,-3.418,9.521
0.388,-0.178,0.929,4.517,-3.357,8.606
0.392,-0.178,0.931,4.639,-3.296,7.507
0.391,-0.180,0.930,4.761,-2.625,6.958
0.390,-0.185,0.921,5.127,-1.526,6.226
0.396,-0.196,0.909,5.615,-1.404,5.920
0.393,-0.209,0.910,6.042,-2.563,6.104
0.391,-0.216,0.922,5.127,-3.906,6.409
0.396,-0.214,0.925,3.540,-3.845,6.836
0.399,-0.210,0.917,2.319,-2.319,7.141
0.401,-0.207,0.906,2.502,-1.526,7.141
0.399,-0.208,0.898,3.662,-1.953,7.080
0.392,-0.208,0.896,4.395,-2.502,7.019
0.387,-0.205,0.893,4.333,-2.258,6.958
0.385,-0.204,0.886,3.967,-1.587,6.592
0.383,-0.206,0.882,4.028,-1.282,5.981
0.384,-0.207,0.880,4.333,-1.404,5.676
0.386,-0.208,0.877,4.639,-1.587,5.371
0.386,-0.210,0.872,4.761,-1.709,5.127
0.389,-0.213,0.870,5.066,-1.892,5.249
0.392,-0.220,0.871,5.005,-2.441,5.310
0.393,-0.229,0.879,5.249,-3.967,5.554
0.394,-0.233,0.891,4.761,-5.981,6.470
0.393,-0.229,0.905,3.357,-7.019,7.812
0.395,-0.224,0.914,2.197,-6.897,8.362
0.398,-0.220,0.918,2.502,-6.653,8.179
0.400,-0.221,0.922,3.662,-6.165,7.751
0.399,-0.219,0.925,4.517,-5.615,7.568
0.397,-0.218,0.924,4.456,-4.639,7.507
0.396,-0.214,0.918,4.333,-3.357,7.385
0.396,-0.216,0.910,3.967,-2.502,6.897
0.393,-0.224,0.907,3.784,-2.380,6.653
0.395,-0.229,0.907,3.723,-2.502,6.409
0.400,-0.237,0.904,3.601,-2.380,6.470
0.401,-0.242,0.904,3.479,-2.380,6.897
0.408,-0.243,0.905,3.662,-2.808,7.507
0.410,-0.241,0.903,4.333,-3.357,8.484
0.407,-0.233,0.899,4.822,-3.723,9.155
0.402,-0.226,0.894,5.188,-3.357,9.460
0.396,-0.222,0.887,5.249,-2.686,9.705
0.396,-0.215,0.881,5.371,-2.625,9.583
0.396,-0.212,0.881,5.493,-3.235,9.460
0.396,-0.211,0.883,5.432,-3.906,9.338
0.396,-0.214,0.885,5.371,-3.906,9.033
0.396,-0.217,0.884,5.493,-3.418,8.911
0.394,-0.219,0.885,5.371,-3.235,8.850
0.394,-0.221,0.887,5.005,-3.662,8.911
0.397,-0.218,0.892,5.310,-4.517,9.094
0.399,-0.212,0.901,5.859,-5.737,9.521
0.401,-0.204,0.906,6.897,-5.737,9.888
0.398,-0.197,0.905,7.874,-5.066,9.827
0.392,-0.191,0.896,8.423,-4.272,9.460
0.389,-0.186,0.886,8.972,-3.601,8.484
0.387,-0.187,0.879,9.277,-2.869,7.812
0.385,-0.188,0.873,9.277,-2.808,7.263
0.382,-0.199,0.881,8.423,-3.540,7.263
0.373,-0.203,0.895,6.836,-4.761,7.202
0.378,-0.202,0.907,5.005,-5.737,7.324
0.392,-0.202,0.917,3.784,-6.531,6.714
0.396,-0.203,0.924,3.174,-6.836,6.592
0.393,-0.200,0.929,3.540,-6.226,6.531
0.391,-0.201,0.928,4.089,-5.554,6.409
0.385,-0.202,0.930,4.395,-5.127,6.226
0.383,-0.202,0.935,4.028,-5.066,5.920
0.388,-0.200,0.937,4.211,-4.883,5.249
0.391,-0.201,0.940,4.395,-5.005,4.883
0.389,-0.200,0.943,4.456,-4.089,4.822
0.387,-0.193,0.938,4.395,-3.113,4.700
0.387,-0.187,0.925,4.333,-1.953,4.456
0.384,-0.182,0.909,4.333,-1.221,3.845
0.386,-0.181,0.896,4.761,-1.221,3.113
0.377,-0.192,0.895,4.944,-2.014,2.686
0.370,-0.193,0.903,4.211,-3.052,2.686
0.374,-0.189,0.908,2.563,-3.784,2.686
0.378,-0.190,0.914,1.648,-4.333,2.136
0.382,-0.192,0.924,1.587,-4.395,1.221
0.384,-0.191,0.926,2.197,-3.845,0.854
0.386,-0.191,0.923,3.296,-2.747,0.549
0.384,-0.186,0.914,4.395,-1.709,0.183
0.379,-0.185,0.899,5.310,-0.977,-0.488
0.379,-0.187,0.885,6.104,-0.305,-1.038
0.378,-0.190,0.873,6.470,-0.122,-1.648
0.373,-0.194,0.866,5.554,-0.671,-1.831
0.367,-0.192,0.867,3.235,-1.892,-1.404
0.364,-0.189,0.872,0.671,-3.357,-1.160
0.369,-0.184,0.876,-0.793,-4.456,-1.343
0.374,-0.183,0.881,-1.099,-5.249,-2.014
0.375,-0.193,0.882,-0.244,-5.554,-2.930
0.377,-0.201,0.877,0.305,-4.944,-3.967
0.376,-0.204,0.863,0.549,-4.272,-4.883
0.374,-0.202,0.849,0.977,-4.028,-5.249
0.368,-0.204,0.840,2.136,-3.967,-5.310
0.363,-0.208,0.842,2.808,-5.066,-5.310
0.362,-0.201,0.848,2.563,-7.141,-5.005
0.365,-0.192,0.865,2.136,-8.911,-4.944
0.367,-0.187,0.878,2.014,-9.644,-5.249
0.368,-0.187,0.885,2.197,-9.399,-6.104
0.367,-0.189,0.884,2.075,-8.911,-7.080
0.368,-0.191,0.880,1.831,-8.911,-7.996
0.367,-0.194,0.877,1.587,-9.399,-8.606
0.358,-0.197,0.879,1.221,-9.460,-9.338
0.353,-0.192,0.884,0.854,-9.827,-9.460
0.350,-0.187,0.891,0.916,-10.254,-9.644
0.343,-0.181,0.903,1.526,-10.742,-9.888
0.338,-0.170,0.915,2.502,-11.475,-10.071
0.333,-0.161,0.924,3.662,-11.414,-10.559
0.324,-0.150,0.923,4.761,-10.498,-11.719
0.312,-0.140,0.919,5.310,-9.644,-12.451
0.309,-0.133,0.914,5.737,-9.766,-13.855
0.304,-0.126,0.916,5.615,-10.620,-15.320
0.287,-0.129,0.925,4.456,-11.230,-16.602
0.279,-0.141,0.938,2.136,-11.353,-18.372
0.282,-0.141,0.943,-1.465,-11.414,-19.836
0.296,-0.124,0.943,-4.761,-12.451,-20.325
0.310,-0.111,0.944,-6.042,-13.550,-20.691
0.311,-0.101,0.949,-6.104,-13.428,-20.935
0.315,-0.097,0.948,-5.310,-12.451,-22.461
0.324,-0.099,0.939,-4.517,-11.169,-25.452
0.339,-0.104,0.934,-3.479,-10.559,-28.564
0.334,-0.114,0.939,-2.014,-10.376,-30.640
0.320,-0.136,0.956,-0.977,-9.888,-32.288
0.309,-0.168,0.973,-1.099,-9.216,-34.302
0.309,-0.193,0.981,-2.319,-8.057,-36.804
0.309,-0.214,0.983,-3.235,-7.263,-38.940
0.303,-0.239,0.982,-2.747,-5.859,-40.283
0.296,-0.267,0.976,-1.770,-4.089,-41.199
0.293,-0.292,0.966,-1.221,-2.625,-42.114
0.297,-0.316,0.950,-1.404,-2.014,-43.213
0.306,-0.341,0.938,-1.038,-2.014,-44.312
0.313,-0.368,0.930,0.000,-1.770,-44.922
0.322,-0.399,0.922,1.282,-1.404,-45.349
0.333,-0.430,0.911,2.075,-0.916,-45.227
0.337,-0.453,0.902,1.465,-0.916,-43.640
0.334,-0.460,0.900,0.488,-1.648,-40.283
0.336,-0.478,0.914,1.099,-2.625,-36.743
0.330,-0.487,0.929,2.136,-3.784,-33.447
0.335,-0.487,0.942,1.465,-3.845,-30.579
0.337,-0.482,0.953,1.709,-3.540,-27.527
0.333,-0.479,0.969,3.113,-3.418,-24.414
0.327,-0.481,0.986,4.578,-3.418,-21.606
0.325,-0.492,1.001,5.554,-2.869,-19.653
0.324,-0.500,1.008,5.310,-1.770,-18.311
0.333,-0.501,1.001,3.540,-0.305,-16.907
0.343,-0.498,0.988,1.465,1.160,-14.771
0.343,-0.494,0.974,0.793,2.014,-11.353
0.334,-0.482,0.966,1.099,2.197,-7.751
0.332,-0.463,0.959,1.221,2.197,-4.578
0.330,-0.439,0.946,0.610,2.563,-1.892
0.326,-0.417,0.932,-0.061,3.235,-0.305
0.315,-0.399,0.921,-0.183,3.540,0.977
0.304,-0.388,0.918,-0.610,3.235,2.197
0.299,-0.383,0.926,-0.916,2.319,2.808
0.296,-0.385,0.945,-1.648,1.526,2.930
0.302,-0.394,0.975,-2.014,1.221,2.991
0.314,-0.405,1.004,-2.075,1.282,3.113
0.332,-0.407,1.028,-1.770,1.892,3.906
0.349,-0.398,1.040,-0.916,3.357,5.493
0.352,-0.383,1.038,0.549,5.493,7.629
0.346,-0.366,1.031,1.892,8.545,9.766
0.334,-0.354,1.011,2.319,11.597,11.353
0.320,-0.339,0.990,1.404,13.794,12.024
0.314,-0.324,0.963,0.305,14.221,12.329
0.306,-0.317,0.950,-0.366,13.977,12.329
0.295,-0.315,0.944,-1.038,14.343,12.207
0.298,-0.317,0.935,-1.099,14.465,11.780
0.304,-0.318,0.923,-1.160,14.404,11.414
0.297,-0.319,0.921,-1.404,14.099,11.719
0.293,-0.313,0.931,-0.916,13.306,12.512
0.303,-0.307,0.934,0.488,12.634,12.878
0.309,-0.299,0.932,1.709,12.573,13.062
0.308,-0.293,0.939,2.686,13.245,12.878
0.310,-0.297,0.942,4.028,14.160,12.329
0.321,-0.301,0.932,4.761,14.709,11.414
0.336,-0.302,0.920,4.822,15.320,10.925
0.341,-0.295,0.911,4.578,16.113,10.803
0.339,-0.299,0.907,5.127,17.029,11.292
0.339,-0.300,0.901,5.737,16.968,12.451
0.345,-0.293,0.903,5.188,16.541,13.367
0.346,-0.291,0.910,4.822,15.808,13.611
0.345,-0.297,0.919,4.517,15.381,13.245
0.353,-0.303,0.930,3.906,15.259,12.878
0.363,-0.305,0.937,2.686,15.381,12.756
0.368,-0.299,0.939,1.404,15.930,13.306
0.374,-0.295,0.937,1.160,16.541,13.733
0.380,-0.291,0.934,1.404,17.273,13.977
0.379,-0.289,0.929,1.526,17.883,13.977
0.379,-0.294,0.932,1.709,18.188,13.611
0.381,-0.299,0.942,1.709,17.700,13.489
0.379,-0.306,0.963,1.770,16.541,13.428
0.383,-0.312,0.990,1.526,15.564,13.367
0.401,-0.311,1.009,1.587,15.137,12.695
0.425,-0.306,1.016,2.930,15.625,11.719
0.451,-0.305,1.019,5.737,17.090,10.803
0.458,-0.302,1.016,8.789,19.897,10.681
0.458,-0.300,1.006,11.414,24.536,11.108
0.470,-0.300,0.982,13.916,29.541,11.230
0.469,-0.305,0.950,16.357,34.607,11.597
0.458,-0.309,0.921,17.395,38.513,11.597
0.450,-0.311,0.890,17.700,40.894,11.292
0.454,-0.316,0.862,17.517,42.358,10.620
0.457,-0.322,0.840,17.151,43.030,9.766
0.458,-0.330,0.820,17.273,42.908,9.155
0.458,-0.343,0.809,18.616,41.687,8.972
0.462,-0.353,0.804,19.836,40.405,9.033
0.465,-0.359,0.801,20.996,39.490,8.789
0.478,-0.363,0.785,22.766,39.246,8.057
0.485,-0.368,0.766,25.391,39.307,7.751
0.490,-0.365,0.747,28.748,39.063,8.179
0.490,-0.359,0.729,32.898,39.124,9.094
0.490,-0.358,0.700,38.086,38.940,9.521
0.483,-0.349,0.669,43.152,38.696,9.521
0.474,-0.347,0.647,49.011,40.466,12.634
0.464,-0.349,0.615,54.688,40.955,13.245
0.467,-0.356,0.606,56.458,36.194,8.728
0.472,-0.359,0.608,55.176,30.762,8.118
0.484,-0.359,0.614,52.795,24.963,8.118
0.499,-0.357,0.628,50.049,20.264,9.277
0.505,-0.362,0.641,47.302,16.968,11.475
0.505,-0.372,0.657,42.847,13.855,13.733
0.517,-0.373,0.675,35.767,11.292,15.869
0.525,-0.374,0.686,26.794,8.301,18.433
0.530,-0.358,0.690,15.747,4.700,21.729
0.529,-0.333,0.693,5.371,1.709,24.841
0.529,-0.311,0.686,-2.380,0.122,26.855
0.527,-0.295,0.673,-6.470,-0.061,27.527
0.515,-0.286,0.651,-7.202,0.732,26.794
0.505,-0.292,0.634,-5.493,1.343,25.146
0.499,-0.302,0.623,-2.686,0.610,23.315
0.501,-0.304,0.630,0.549,-1.648,21.912
0.512,-0.302,0.649,4.517,-5.432,20.813
0.520,-0.298,0.676,9.644,-8.484,19.836
0.524,-0.294,0.706,14.954,-9.949,19.226
0.525,-0.301,0.735,18.921,-10.864,18.494
0.524,-0.309,0.764,20.813,-11.841,17.883
0.530,-0.308,0.785,20.630,-12.329,17.273
0.537,-0.300,0.795,19.165,-11.353,16.663
0.543,-0.295,0.793,18.005,-9.766,15.747
0.541,-0.293,0.778,17.517,-7.446,14.954
0.531,-0.296,0.755,17.578,-4.944,13.489
0.524,-0.306,0.732,17.883,-3.357,11.475
0.526,-0.318,0.714,18.066,-3.113,9.644
0.534,-0.328,0.708,18.921,-4.150,8.484
0.541,-0.338,0.712,20.020,-5.554,8.118
0.540,-0.342,0.715,20.752,-7.141,8.911
0.533,-0.331,0.715,20.874,-8.728,10.010
0.526,-0.318,0.704,20.996,-9.888,10.498
0.526,-0.309,0.694,20.630,-10.986,10.193
0.527,-0.310,0.690,20.447,-12.085,9.521
0.519,-0.312,0.689,20.142,-13.550,8.850
0.515,-0.311,0.691,20.020,-15.015,8.057
0.515,-0.309,0.691,20.264,-16.174,7.446
0.516,-0.306,0.693,21.240,-17.456,5.981
0.522,-0.301,0.697,23.132,-18.188,4.211
0.531,-0.297,0.700,25.513,-18.188,2.502
0.534,-0.300,0.716,28.137,-18.311,0.854
0.544,-0.319,0.739,30.640,-19.104,-0.732
0.558,-0.344,0.764,31.616,-20.752,-2.136
0.547,-0.367,0.793,29.968,-22.461,-2.380
0.535,-0.382,0.822,26.062,-23.865,-2.258
0.534,-0.389,0.834,20.813,-24.597,-2.197
0.533,-0.385,0.824,14.771,-23.743,-1.709
0.524,-0.373,0.804,9.338,-22.217,-1.404
0.509,-0.363,0.779,6.531,-20.935,-1.404
0.491,-0.366,0.754,5.859,-20.081,-1.404
0.480,-0.368,0.738,6.042,-18.921,-1.343
0.470,-0.360,0.732,6.531,-17.395,-2.319
0.468,-0.356,0.731,8.484,-17.456,-3.418
0.463,-0.362,0.742,11.841,-17.944,-4.150
0.465,-0.374,0.767,15.137,-18.188,-5.798
0.475,-0.390,0.790,17.578,-17.517,-7.690
0.485,-0.402,0.805,18.250,-16.113,-9.277
0.497,-0.420,0.824,16.541,-15.076,-10.010
0.505,-0.444,0.853,12.634,-15.381,-10.132
0.514,-0.466,0.881,7.385,-16.174,-9.460
0.525,-0.477,0.895,1.587,-16.052,-8.484
0.533,-0.480,0.902,-3.235,-13.733,-6.958
0.533,-0.485,0.894,-5.798,-10.559,-5.432
0.534,-0.497,0.883,-5.981,-7.629,-4.395
0.534,-0.503,0.874,-5.676,-6.409,-3.296
0.525,-0.500,0.871,-5.554,-6.470,-2.197
0.525,-0.496,0.869,-4.761,-5.798,-1.465
0.528,-0.500,0.864,-2.625,-4.272,-1.648
0.527,-0.502,0.861,-0.366,-2.441,-1.526
0.523,-0.507,0.859,1.526,-0.610,-1.099
0.521,-0.508,0.849,3.174,1.099,-0.793
0.517,-0.510,0.832,4.028,2.686,-0.427
0.512,-0.508,0.815,3.784,4.333,0.366
0.510,-0.504,0.801,2.808,5.249,1.343
0.507,-0.500,0.787,1.831,5.066,2.686
0.509,-0.495,0.776,0.977,4.883,3.662
0.509,-0.493,0.761,0.183,5.066,4.456
0.509,-0.488,0.740,-0.122,4.395,5.371
0.502,-0.482,0.729,0.122,2.625,6.348
0.497,-0.470,0.730,0.854,1.221,7.385
0.494,-0.461,0.731,1.953,0.854,7.935
0.498,-0.462,0.723,3.235,1.343,7.324
0.504,-0.466,0.708,3.906,1.648,6.409
0.510,-0.465,0.702,3.479,1.221,6.775
0.514,-0.456,0.702,3.235,0.183,8.179
0.516,-0.442,0.704,3.357,-0.977,9.705
0.515,-0.423,0.702,3.723,-2.014,10.925
0.508,-0.416,0.708,4.761,-3.113,11.353
0.506,-0.411,0.717,5.066,-4.089,11.230
0.507,-0.407,0.725,4.761,-4.272,10.925
0.505,-0.405,0.739,3.784,-4.578,10.559
0.506,-0.401,0.753,2.686,-5.859,9.949
0.510,-0.397,0.766,1.831,-6.958,9.460
0.516,-0.391,0.778,1.343,-6.592,9.277
0.522,-0.385,0.780,1.526,-5.920,8.789
0.523,-0.387,0.786,2.502,-5.066,7.935
0.521,-0.393,0.794,3.662,-4.089,7.141
0.523,-0.399,0.792,4.150,-2.625,6.348
0.524,-0.405,0.781,4.089,-1.343,5.737
0.524,-0.407,0.771,3.540,-1.404,5.188
0.524,-0.401,0.775,2.686,-2.380,5.188
0.528,-0.397,0.784,2.686,-2.808,5.676
0.529,-0.397,0.788,3.174,-2.502,5.920
0.528,-0.398,0.786,3.357,-1.831,5.737
0.524,-0.396,0.784,3.357,-2.136,5.310
0.518,-0.390,0.785,2.747,-2.441,5.066
0.517,-0.380,0.777,1.709,-2.197,5.310
0.515,-0.379,0.770,1.221,-1.953,4.883
0.511,-0.388,0.768,0.732,-1.648,3.418
0.516,-0.404,0.764,0.000,-1.526,1.770
0.527,-0.417,0.753,-0.854,-1.465,0.854
0.532,-0.422,0.742,-1.343,-1.526,1.099
0.527,-0.421,0.739,-0.793,-1.587,2.197
0.523,-0.421,0.740,0.488,-1.587,2.991
0.522,-0.421,0.738,1.953,-1.709,3.113
0.518,-0.420,0.741,3.174,-1.526,2.686
0.520,-0.418,0.748,4.028,-1.587,2.747
0.526,-0.414,0.751,4.517,-1.953,2.747
0.533,-0.415,0.754,4.761,-2.380,3.052
0.528,-0.416,0.760,4.395,-3.235,2.869
0.519,-0.419,0.768,2.563,-3.662,2.869
0.523,-0.423,0.767,0.061,-3.235,2.747
0.526,-0.425,0.758,-2.136,-2.258,2.502
0.531,-0.428,0.753,-2.441,-1.770,2.075
0.535,-0.431,0.749,-0.732,-1.526,1.953
0.532,-0.431,0.748,1.465,-1.526,2.502
0.532,-0.428,0.754,3.479,-1.404,3.113
0.537,-0.427,0.765,4.883,-1.587,3.662
0.534,-0.420,0.768,5.493,-2.014,4.211
0.533,-0.411,0.774,5.127,-2.563,4.578
0.529,-0.405,0.783,4.517,-3.235,5.188
0.524,-0.396,0.787,3.174,-3.296,5.371
0.524,-0.386,0.781,1.648,-2.563,4.639
0.527,-0.376,0.772,0.671,-1.831,3.723
0.528,-0.371,0.769,0.549,-1.404,3.235
0.523,-0.365,0.770,1.526,-1.160,2.930
0.524,-0.361,0.774,2.625,-1.343,2.380
0.526,-0.358,0.776,3.235,-1.587,1.587
0.526,-0.353,0.778,2.563,-1.465,0.671
0.529,-0.348,0.770,1.953,-1.099,-0.061
0.525,-0.344,0.765,1.465,-0.854,-0.305
0.520,-0.345,0.764,0.488,-1.099,-0.610
0.519,-0.342,0.761,-0.549,-1.282,-1.282
0.522,-0.339,0.757,-1.465,-1.038,-2.319
0.522,-0.339,0.757,-1.892,-0.793,-3.052
0.516,-0.341,0.760,-1.587,-0.977,-3.601
0.519,-0.349,0.764,-0.610,-0.732,-4.883
0.525,-0.352,0.763,-0.488,0.000,-6.226
0.524,-0.355,0.763,-0.916,0.610,-7.019
0.523,-0.359,0.765,-1.160,0.549,-7.202
0.523,-0.363,0.772,-1.038,-0.549,-7.385
0.527,-0.360,0.787,-1.282,-1.770,-7.751
0.530,-0.360,0.797,-1.770,-1.953,-8.362
0.535,-0.361,0.798,-2.625,-1.343,-9.338
0.530,-0.362,0.795,-3.235,-0.488,-9.888
0.523,-0.365,0.794,-4.211,0.366,-10.376
0.519,-0.369,0.790,-5.432,1.099,-11.047
0.516,-0.373,0.783,-6.592,1.892,-12.085
0.511,-0.376,0.774,-7.629,2.930,-12.878
0.505,-0.378,0.771,-7.568,3.357,-13.367
0.501,-0.386,0.775,-6.531,2.808,-13.916
0.503,-0.392,0.783,-5.249,2.258,-14.648
0.510,-0.390,0.784,-4.761,1.892,-15.259
0.512,-0.386,0.786,-4.578,1.892,-15.442
0.508,-0.380,0.787,-4.883,2.075,-14.954
0.502,-0.374,0.787,-5.005,2.197,-15.015
0.501,-0.370,0.784,-5.554,2.380,-15.930
0.504,-0.366,0.780,-7.019,2.502,-16.968
0.506,-0.358,0.779,-8.240,2.808,-17.395
0.502,-0.353,0.782,-8.362,2.869,-18.005
0.501,-0.354,0.787,-8.179,2.991,-18.433
0.500,-0.360,0.790,-8.179,3.113,-19.714
0.501,-0.371,0.786,-9.094,3.296,-21.545
0.505,-0.384,0.778,-10.254,3.418,-23.193
0.511,-0.389,0.770,-11.353,3.845,-23.743
0.516,-0.387,0.761,-11.475,4.150,-23.437
0.513,-0.383,0.754,-10.620,4.089,-23.010
0.508,-0.378,0.760,-9.644,3.235,-22.400
0.505,-0.372,0.769,-8.728,2.502,-22.522
0.504,-0.365,0.778,-8.423,2.258,-23.254
0.506,-0.360,0.785,-8.423,2.625,-24.719
0.503,-0.357,0.788,-8.667,3.601,-25.696
0.501,-0.353,0.783,-8.850,5.005,-26.611
0.496,-0.358,0.782,-8.484,5.920,-27.771
0.491,-0.377,0.777,-8.362,6.653,-29.541
0.493,-0.397,0.763,-9.521,7.507,-31.555
0.497,-0.411,0.741,-11.047,8.118,-32.654
0.497,-0.417,0.719,-12.268,8.118,-32.349
0.494,-0.423,0.707,-11.414,7.263,-31.555
0.489,-0.426,0.699,-9.766,6.104,-31.006
0.477,-0.422,0.692,-8.484,5.188,-30.212
0.466,-0.414,0.692,-6.958,4.272,-30.212
0.464,-0.420,0.700,-5.188,3.174,-31.555
0.467,-0.429,0.704,-3.845,2.380,-33.020
0.469,-0.434,0.702,-3.113,2.075,-34.058
0.476,-0.433,0.695,-2.563,2.136,-34.607
0.475,-0.429,0.684,-1.953,1.953,-34.119
0.467,-0.429,0.678,-2.625,1.526,-33.081
0.454,-0.425,0.673,-5.066,0.671,-32.593
0.442,-0.418,0.662,-8.362,-0.305,-32.410
0.441,-0.425,0.655,-11.169,-1.343,-32.959
0.434,-0.412,0.645,-13.611,-2.991,-34.424
0.417,-0.420,0.640,-14.282,-4.761,-33.997
0.394,-0.444,0.649,-13.062,-7.202,-34.363
0.393,-0.471,0.673,-12.573,-9.949,-36.072
0.410,-0.498,0.697,-11.963,-13.428,-38.635
0.419,-0.520,0.728,-11.230,-16.052,-39.917
0.412,-0.532,0.771,-10.315,-17.212,-38.513
0.408,-0.548,0.817,-8.057,-18.738,-37.354
0.426,-0.553,0.847,-5.981,-19.043,-36.438
0.429,-0.550,0.871,-5.676,-17.700,-35.156
0.422,-0.543,0.887,-6.287,-15.198,-33.569
0.419,-0.550,0.894,-6.531,-13.000,-32.837
0.424,-0.567,0.887,-7.874,-10.742,-33.386
0.428,-0.579,0.867,-11.475,-8.301,-33.386
0.424,-0.587,0.848,-16.052,-6.836,-32.654
0.415,-0.593,0.837,-18.311,-6.714,-30.945
0.414,-0.596,0.829,-18.005,-7.141,-29.114
0.413,-0.594,0.820,-16.235,-7.568,-27.527
0.408,-0.590,0.811,-13.550,-6.653,-26.001
0.398,-0.587,0.808,-9.644,-5.615,-24.780
0.391,-0.592,0.819,-5.249,-5.737,-23.682
0.395,-0.604,0.828,-0.916,-6.226,-23.437
0.395,-0.623,0.840,1.892,-5.981,-23.071
0.393,-0.627,0.849,2.502,-5.310,-21.545
0.403,-0.628,0.859,2.563,-4.517,-19.653
0.408,-0.627,0.860,2.502,-3.845,-17.761
0.408,-0.632,0.855,2.014,-2.991,-15.991
0.401,-0.631,0.848,0.977,-2.563,-13.855
0.400,-0.628,0.844,-0.549,-2.747,-11.902
0.400,-0.618,0.832,-1.892,-2.502,-10.193
0.394,-0.611,0.814,-2.075,-1.648,-8.545
0.387,-0.602,0.796,-1.770,-0.854,-7.019
0.380,-0.593,0.783,-0.793,-0.549,-5.005
0.374,-0.587,0.777,0.732,-0.732,-3.723
0.373,-0.581,0.775,2.258,-1.099,-2.991
0.376,-0.577,0.779,3.845,-1.526,-1.953
0.374,-0.576,0.788,4.944,-2.014,-0.977
0.376,-0.573,0.797,5.249,-2.808,-0.061
0.378,-0.564,0.800,4.578,-3.540,0.977
0.380,-0.550,0.804,3.357,-4.150,2.197
0.385,-0.533,0.807,2.075,-4.211,2.991
0.390,-0.520,0.803,2.075,-3.906,3.418
0.393,-0.512,0.798,2.625,-3.601,3.540
0.393,-0.508,0.797,2.747,-3.235,3.479
0.390,-0.508,0.800,2.686,-2.991,3.357
0.391,-0.505,0.803,2.502,-3.174,3.357
0.393,-0.500,0.805,1.953,-3.052,3.601
0.390,-0.498,0.806,1.770,-2.502,3.784
0.384,-0.497,0.806,1.953,-2.014,3.967
0.381,-0.495,0.808,2.258,-2.136,3.845
0.380,-0.490,0.809,2.869,-2.380,3.906
0.383,-0.483,0.809,3.113,-2.441,3.906
0.383,-0.476,0.807,3.235,-2.014,3.906
0.380,-0.474,0.800,3.784,-1.343,3.601
0.376,-0.469,0.794,3.784,-1.465,3.296
0.372,-0.466,0.796,3.052,-2.075,3.052
0.370,-0.465,0.801,1.526,-2.747,3.113

0.224,-0.320,0.958,-48.950,-55.176,-49.988
0.282,-0.219,0.930,-52.612,-41.992,-51.392
0.227,-0.305,1.010,-41.687,-44.922,-50.110
0.221,-0.311,1.054,-33.325,-42.786,-39.429
0.211,-0.310,1.031,-31.738,-28.381,-31.616
0.171,-0.302,0.993,-30.029,-18.188,-26.794
0.144,-0.285,0.957,-28.442,-13.184,-23.254
0.149,-0.277,0.876,-26.917,-6.653,-22.217
0.152,-0.276,0.823,-25.391,-5.432,-19.592
0.144,-0.282,0.819,-20.996,-9.399,-14.343
0.154,-0.305,0.836,-14.771,-10.132,-9.705
0.166,-0.327,0.865,-8.667,-10.071,-3.601
0.158,-0.309,0.889,-3.662,-11.414,4.089
0.155,-0.275,0.914,1.892,-10.498,13.367
0.140,-0.251,0.943,9.216,-5.981,23.315
0.129,-0.252,0.967,16.663,0.549,31.494
0.121,-0.221,0.973,21.912,5.554,32.349
0.105,-0.235,0.990,28.198,4.333,25.330
0.077,-0.230,1.076,26.978,-2.808,14.709
0.111,-0.069,1.105,31.006,-5.005,13.916
0.272,-0.129,1.120,55.786,14.526,6.714
0.207,-0.338,1.011,72.815,29.053,-17.944
0.197,-0.334,0.959,55.115,36.621,-23.376
0.202,-0.338,0.920,48.950,33.569,-27.344
0.168,-0.364,0.899,47.241,24.353,-29.236
0.154,-0.367,0.875,41.931,20.325,-29.724
0.098,-0.336,0.833,37.781,16.235,-33.875
0.237,-0.372,0.884,41.260,5.920,-43.457
0.230,-0.431,0.872,39.490,6.104,-43.945
0.219,-0.453,0.877,34.180,9.460,-37.720
0.205,-0.448,0.866,31.311,11.414,-31.677
0.188,-0.445,0.847,29.968,13.672,-28.320
0.189,-0.435,0.823,29.175,14.709,-26.245
0.194,-0.419,0.791,27.832,13.672,-24.353
0.195,-0.412,0.781,26.550,8.850,-23.804
0.193,-0.420,0.794,24.963,3.174,-24.231
0.192,-0.429,0.819,21.667,-0.427,-23.926
0.189,-0.440,0.840,17.456,-2.014,-22.583
0.189,-0.446,0.859,12.817,-2.563,-21.057
0.186,-0.447,0.871,8.789,-2.197,-19.470
0.217,-0.483,0.814,5.554,-1.099,-18.799
0.171,-0.470,0.812,-2.930,-1.465,-18.005
0.170,-0.429,0.831,-8.240,-2.014,-14.954
0.171,-0.409,0.798,-2.808,-0.793,-14.648
0.168,-0.388,0.782,1.099,0.977,-15.137
0.167,-0.367,0.767,2.197,3.418,-16.724
0.166,-0.351,0.744,2.747,6.653,-19.470
0.161,-0.343,0.720,1.770,10.010,-22.949
0.170,-0.339,0.691,-0.305,13.367,-25.879
0.189,-0.332,0.648,-2.258,17.090,-28.381
0.207,-0.325,0.603,-2.258,19.653,-30.273
0.216,-0.318,0.561,-0.305,21.484,-30.090
0.218,-0.301,0.514,3.113,23.621,-28.442
0.212,-0.283,0.468,7.751,26.794,-25.940
0.215,-0.283,0.403,12.756,31.677,-23.621
0.186,-0.288,0.362,13.611,33.936,-21.484
0.116,-0.278,0.331,11.414,30.701,-17.578
0.016,-0.316,0.338,7.324,15.076,-13.855
-0.031,-0.321,0.410,1.587,-15.137,-14.526
0.019,-0.332,0.542,1.099,-57.556,-18.066
0.043,-0.404,0.720,7.874,-99.854,-26.428
0.016,-0.505,0.886,15.320,-130.554,-32.471
-0.033,-0.516,1.066,21.606,-147.095,-31.921
0.001,-0.582,1.206,33.936,-150.818,-28.931
-0.005,-0.626,1.361,47.852,-147.400,-27.405
0.004,-0.717,1.501,61.584,-139.221,-25.513
-0.004,-0.785,1.614,70.557,-127.930,-24.231
0.001,-0.861,1.726,70.251,-116.028,-20.325
-0.002,-0.857,1.801,63.477,-101.318,-14.099
0.011,-0.843,1.849,55.176,-81.055,-8.057
0.032,-0.796,1.843,45.227,-54.810,-3.479
0.023,-0.752,1.791,36.133,-24.841,-2.197
-0.001,-0.729,1.680,29.297,7.385,-3.845
0.038,-0.752,1.457,20.630,38.330,-7.629
0.056,-0.721,1.298,4.028,58.289,-12.756
0.070,-0.701,1.171,-7.202,67.871,-14.587
0.070,-0.689,1.045,-10.254,73.792,-13.367
0.056,-0.667,0.954,-12.634,78.186,-11.047
0.044,-0.642,0.862,-14.282,82.031,-9.033
0.039,-0.640,0.764,-13.123,84.412,-8.972
0.044,-0.629,0.679,-11.902,84.351,-9.338
0.056,-0.618,0.611,-10.315,79.285,-8.972
0.076,-0.599,0.567,-7.385,70.007,-8.240
0.095,-0.577,0.545,-2.014,58.594,-7.385
0.110,-0.563,0.541,3.723,46.936,-6.348
0.124,-0.552,0.546,8.301,36.011,-5.188
0.133,-0.539,0.566,11.230,26.489,-3.784
0.132,-0.530,0.589,12.512,19.104,-2.136
0.125,-0.531,0.611,12.451,14.160,-1.221
0.118,-0.527,0.635,10.132,9.888,-1.099
0.119,-0.518,0.661,6.836,5.554,-0.977
0.126,-0.514,0.694,3.906,2.136,-0.977
0.127,-0.514,0.727,1.648,0.122,-1.282
0.126,-0.510,0.749,0.427,-0.977,-1.587
0.129,-0.506,0.767,0.366,-1.587,-2.747
0.130,-0.514,0.785,1.343,-1.892,-3.845
0.121,-0.521,0.801,2.258,-1.953,-3.723
0.117,-0.523,0.828,2.502,-2.625,-3.662
0.118,-0.524,0.855,2.563,-4.089,-3.845
0.123,-0.527,0.886,2.258,-5.310,-3.784
0.126,-0.523,0.913,1.282,-5.676,-3.174
0.129,-0.517,0.933,0.183,-4.944,-2.869
0.131,-0.510,0.948,-0.671,-3.357,-2.808
0.133,-0.505,0.959,-1.648,-1.709,-3.113
0.134,-0.500,0.968,-2.808,-0.366,-3.967
0.137,-0.495,0.975,-3.906,0.977,-5.371
0.136,-0.490,0.980,-4.517,3.235,-6.836
0.138,-0.485,0.977,-4.944,6.165,-8.118
0.135,-0.485,0.969,-5.188,9.094,-9.399
0.135,-0.484,0.958,-5.249,11.414,-11.230
0.135,-0.483,0.948,-5.371,13.611,-12.939
0.128,-0.485,0.932,-6.104,16.235,-14.465
0.125,-0.491,0.915,-6.287,18.799,-15.564
0.123,-0.497,0.893,-5.920,19.958,-16.724
0.126,-0.501,0.879,-5.066,19.592,-18.127
0.128,-0.505,0.871,-4.517,18.677,-19.165
0.127,-0.506,0.864,-3.845,18.738,-19.043
0.122,-0.506,0.856,-3.479,18.921,-18.799
0.120,-0.501,0.846,-2.930,18.738,-19.165
0.124,-0.498,0.840,-2.747,18.738,-19.714
0.124,-0.494,0.833,-2.136,19.287,-20.386
0.123,-0.494,0.823,-1.770,20.020,-21.179
0.117,-0.498,0.811,-1.526,20.447,-21.790
0.118,-0.501,0.797,-1.953,20.203,-22.705
0.120,-0.501,0.788,-2.747,19.226,-23.132
0.115,-0.504,0.785,-3.479,18.127,-23.132
0.105,-0.507,0.785,-3.418,17.090,-22.644
0.098,-0.509,0.783,-2.747,15.930,-22.644
0.095,-0.514,0.786,-1.709,13.611,-23.376
0.095,-0.519,0.803,-1.160,10.559,-24.231
0.096,-0.520,0.822,-0.549,8.240,-24.780
0.098,-0.528,0.843,0.488,7.935,-25.085
0.101,-0.537,0.857,1.282,8.606,-25.269
0.101,-0.544,0.865,1.038,9.155,-25.269
0.097,-0.548,0.872,0.061,9.399,-24.902
0.093,-0.550,0.874,-1.831,9.155,-24.902
0.094,-0.552,0.874,-3.967,9.033,-24.963
0.099,-0.555,0.873,-5.127,9.705,-24.902
0.101,-0.558,0.867,-5.127,10.620,-25.146
0.101,-0.566,0.859,-4.395,11.597,-25.146
0.099,-0.576,0.851,-3.113,12.146,-24.963
0.098,-0.584,0.845,-2.502,12.451,-24.414
0.098,-0.589,0.845,-2.136,12.146,-23.560
0.096,-0.588,0.848,-2.014,11.047,-22.400
0.095,-0.583,0.855,-1.892,10.315,-21.301
0.097,-0.578,0.861,-1.648,9.705,-20.508
0.096,-0.575,0.866,-1.587,9.766,-19.958
0.091,-0.571,0.864,-1.404,10.132,-19.531
0.088,-0.571,0.864,-1.831,10.437,-19.470
0.091,-0.574,0.862,-2.808,10.681,-19.653
0.089,-0.582,0.861,-4.333,10.742,-19.592
0.091,-0.585,0.858,-5.615,10.803,-19.531
0.097,-0.586,0.854,-6.409,11.475,-18.860
0.099,-0.591,0.846,-5.920,11.780,-17.944
0.099,-0.593,0.840,-5.249,11.047,-17.212
0.100,-0.591,0.844,-4.883,10.010,-16.235
0.101,-0.586,0.848,-4.578,9.705,-15.259
0.104,-0.581,0.846,-4.089,9.949,-14.404
0.104,-0.577,0.841,-3.479,10.620,-13.794
0.104,-0.571,0.837,-2.869,11.169,-13.306
0.103,-0.569,0.831,-2.258,10.986,-12.939
0.104,-0.569,0.831,-2.014,10.010,-12.756
0.104,-0.571,0.833,-2.502,9.277,-12.573
0.102,-0.573,0.838,-3.601,9.094,-11.963
0.106,-0.576,0.842,-4.395,8.789,-11.536
0.106,-0.586,0.848,-4.700,8.667,-11.292
0.108,-0.589,0.850,-5.127,8.606,-10.742
0.117,-0.586,0.853,-5.127,8.850,-9.827
0.124,-0.581,0.847,-4.517,9.583,-8.911
0.123,-0.571,0.834,-3.662,10.010,-8.118
0.121,-0.564,0.828,-2.502,9.521,-7.385
0.118,-0.557,0.825,-1.709,8.423,-6.836
0.114,-0.552,0.827,-1.831,7.385,-6.531
0.110,-0.555,0.833,-1.770,6.287,-6.409
0.112,-0.557,0.841,-2.075,5.432,-6.165
0.112,-0.553,0.851,-2.502,4.761,-5.859
0.112,-0.549,0.859,-2.441,4.822,-5.615
0.110,-0.550,0.863,-1.526,5.554,-5.127
0.103,-0.555,0.869,-1.343,5.859,-4.761
0.102,-0.558,0.872,-1.892,5.859,-5.005
0.111,-0.564,0.874,-2.747,6.348,-5.005
0.115,-0.562,0.860,-3.906,6.958,-4.761
0.117,-0.553,0.845,-4.517,7.202,-4.089
0.117,-0.551,0.835,-4.333,6.836,-3.418
0.111,-0.552,0.834,-3.601,6.042,-2.930
0.108,-0.553,0.834,-2.869,5.493,-2.808
0.106,-0.558,0.838,-2.625,5.188,-2.686
0.112,-0.569,0.848,-2.625,4.333,-2.686
0.118,-0.576,0.856,-2.869,3.906,-2.441
0.120,-0.579,0.862,-3.174,3.967,-1.404
0.124,-0.578,0.865,-3.052,4.150,-0.732
0.131,-0.574,0.866,-2.869,4.089,-0.183
0.134,-0.567,0.866,-3.052,3.540,0.366
0.141,-0.561,0.865,-3.357,3.662,1.099
0.144,-0.556,0.858,-3.662,3.784,1.343
0.144,-0.553,0.853,-4.272,3.723,1.953
0.141,-0.549,0.849,-5.005,3.723,2.319
0.144,-0.546,0.845,-5.371,4.150,2.136
0.143,-0.551,0.836,-4.700,4.761,2.014
0.143,-0.554,0.833,-3.113,4.700,1.648
0.146,-0.560,0.836,-1.831,3.967,1.587
0.139,-0.560,0.835,-0.610,3.357,2.014
0.161,-0.557,0.835,0.122,3.784,2.747
0.158,-0.554,0.838,0.305,2.502,3.662
0.149,-0.550,0.842,0.183,0.610,5.188
0.147,-0.545,0.858,-0.061,-0.671,6.042
0.149,-0.541,0.871,-0.793,-1.465,6.165
0.154,-0.533,0.876,-1.587,-1.221,5.920
0.155,-0.525,0.871,-2.136,0.183,5.981
0.151,-0.522,0.861,-2.625,1.648,6.348
0.150,-0.521,0.851,-2.502,2.319,6.287
0.150,-0.523,0.843,-2.441,2.197,5.676
0.157,-0.526,0.837,-2.502,2.014,5.310
0.161,-0.530,0.833,-2.197,1.953,5.371
0.159,-0.536,0.831,-1.404,1.221,5.615
0.159,-0.534,0.833,-1.221,-0.061,6.165
0.165,-0.526,0.840,-0.610,-0.854,6.531
0.167,-0.516,0.841,-0.183,-0.671,7.263
0.163,-0.506,0.839,0.122,-0.305,7.812
0.160,-0.503,0.844,0.671,-0.122,7.874
0.161,-0.505,0.847,0.671,-0.122,7.324
0.162,-0.513,0.849,0.488,0.061,6.592
0.163,-0.522,0.851,0.000,0.183,6.042
0.171,-0.526,0.853,-0.488,0.122,5.920
0.168,-0.527,0.853,-0.549,0.244,6.592
0.171,-0.523,0.850,-0.671,0.305,7.202
0.176,-0.518,0.848,-0.732,-0.854,7.385
0.173,-0.518,0.856,-0.244,-2.258,7.812
0.175,-0.515,0.868,-0.305,-3.174,8.057
0.183,-0.513,0.876,-0.549,-2.808,7.568
0.190,-0.513,0.876,-0.427,-1.953,7.202
0.192,-0.513,0.873,-0.671,-0.977,7.690
0.191,-0.506,0.873,-0.977,-0.427,8.240
0.187,-0.501,0.873,-0.916,-0.122,8.301
0.189,-0.498,0.870,-0.549,0.061,7.874
0.191,-0.500,0.867,-0.183,0.366,7.202
0.193,-0.501,0.858,-0.122,1.099,6.836
0.190,-0.504,0.849,-0.244,1.160,6.470
0.191,-0.504,0.846,-0.122,0.610,6.592
0.189,-0.502,0.849,0.061,0.366,7.141
0.185,-0.501,0.849,0.122,0.305,7.568
0.185,-0.501,0.850,0.244,0.366,7.507
0.182,-0.500,0.849,0.427,-0.122,7.202
0.187,-0.496,0.849,0.732,-1.221,6.775
0.189,-0.495,0.855,0.671,-1.282,6.714
0.192,-0.489,0.857,-0.061,-0.793,6.714
0.189,-0.482,0.854,-0.732,-0.977,7.019
0.192,-0.476,0.852,-1.221,-1.038,6.958
0.194,-0.471,0.849,-1.587,-1.038,6.409
0.194,-0.467,0.842,-1.648,-0.732,5.676
0.192,-0.467,0.834,-1.221,-0.305,4.944
0.190,-0.470,0.830,-0.916,-0.488,4.395
0.193,-0.476,0.833,-0.427,-0.671,3.662
0.199,-0.482,0.831,0.366,-1.038,2.563
0.200,-0.487,0.834,0.977,-1.770,2.197
0.199,-0.491,0.847,1.282,-2.625,2.502
0.201,-0.494,0.863,1.526,-2.930,3.052
0.202,-0.500,0.872,1.709,-2.625,2.930
0.205,-0.502,0.876,1.648,-2.441,2.625
0.210,-0.503,0.880,1.099,-2.319,2.686
0.210,-0.501,0.882,0.610,-2.319,3.052
0.208,-0.499,0.880,0.366,-2.258,3.357
0.208,-0.491,0.878,0.244,-2.319,3.296
0.208,-0.486,0.875,0.183,-2.136,3.052
0.202,-0.487,0.875,0.244,-1.404,2.502
0.195,-0.497,0.872,0.366,-0.793,1.831
0.201,-0.505,0.866,0.183,-0.488,1.221
0.209,-0.510,0.860,-0.061,0.000,0.854
0.207,-0.511,0.857,-0.061,0.427,1.404
0.204,-0.508,0.858,0.610,0.427,2.258
0.204,-0.508,0.867,1.892,0.244,2.930
0.204,-0.514,0.872,2.625,-0.122,3.052
0.205,-0.521,0.876,2.686,-0.854,2.625
0.209,-0.519,0.880,1.831,-1.709,2.563
0.206,-0.511,0.884,0.610,-1.709,3.662
0.204,-0.501,0.882,-0.061,-1.038,4.272
0.200,-0.497,0.874,-0.488,-0.244,4.150
0.198,-0.493,0.865,-0.610,0.244,3.357
0.202,-0.495,0.862,-0.305,0.183,2.686
0.204,-0.501,0.861,0.549,-0.122,2.075
0.203,-0.508,0.858,0.977,-0.183,2.075
0.203,-0.508,0.856,0.427,0.000,2.502
0.203,-0.505,0.849,0.122,0.366,2.869
0.202,-0.500,0.842,0.000,0.488,3.418
0.199,-0.497,0.837,0.488,0.610,3.540
0.197,-0.500,0.838,1.221,0.122,3.357
0.198,-0.506,0.839,1.892,0.183,2.869
0.200,-0.514,0.845,1.892,0.122,2.563
0.204,-0.521,0.850,1.526,-0.427,2.869
0.205,-0.522,0.859,1.099,-1.099,3.540
0.207,-0.524,0.871,1.282,-1.709,3.845
0.206,-0.521,0.877,1.465,-1.831,4.211
0.207,-0.517,0.879,1.709,-1.465,4.761
0.208,-0.515,0.879,1.831,-1.404,4.944
0.208,-0.512,0.872,1.709,-1.038,4.883
0.208,-0.511,0.865,1.099,-0.366,4.883
0.208,-0.513,0.856,0.671,0.122,4.761
0.207,-0.516,0.849,0.000,-0.061,4.761
0.207,-0.517,0.846,-0.366,-0.549,5.066
0.208,-0.517,0.841,-0.061,-0.732,5.249
0.208,-0.516,0.838,0.549,-0.732,5.615
0.212,-0.514,0.839,1.465,-1.160,6.104
0.212,-0.511,0.844,2.625,-1.709,6.775
0.207,-0.513,0.856,3.479,-2.136,7.385
0.206,-0.516,0.866,3.357,-2.319,7.263
0.208,-0.519,0.873,2.563,-2.625,7.080
0.209,-0.521,0.885,1.831,-2.625,7.263
0.214,-0.523,0.890,1.648,-1.953,7.263
0.220,-0.529,0.884,1.892,-0.610,6.958
0.224,-0.537,0.870,1.770,0.610,6.836
0.224,-0.543,0.859,1.221,0.793,7.202
0.225,-0.542,0.849,0.488,0.122,8.179
0.228,-0.539,0.842,-0.061,-0.549,9.155
0.229,-0.528,0.836,0.000,-1.160,10.376
0.224,-0.519,0.832,0.732,-1.770,11.414
0.214,-0.514,0.837,2.441,-2.563,12.024
0.215,-0.512,0.841,3.906,-2.563,11.963
0.221,-0.509,0.840,4.822,-2.197,11.475
0.221,-0.506,0.835,5.249,-1.831,11.292
0.220,-0.503,0.832,5.554,-1.892,11.475
0.223,-0.500,0.827,5.310,-2.197,11.597
0.226,-0.499,0.816,4.761,-2.380,11.353
0.228,-0.500,0.801,4.211,-2.625,10.803
0.229,-0.501,0.786,3.601,-2.625,10.681
0.227,-0.506,0.772,2.869,-2.625,10.803
0.220,-0.513,0.764,1.892,-3.479,11.169
0.218,-0.516,0.762,0.854,-5.127,11.963
0.219,-0.517,0.771,0.488,-7.385,12.878
0.215,-0.514,0.788,1.282,-9.583,14.160
0.209,-0.508,0.812,3.113,-11.230,14.832
0.206,-0.501,0.841,5.005,-12.390,15.015
0.210,-0.499,0.869,6.775,-12.573,14.587
0.213,-0.495,0.894,7.935,-12.268,14.282
0.211,-0.493,0.913,8.423,-11.658,14.038
0.214,-0.496,0.928,7.935,-10.864,13.550
0.221,-0.500,0.933,6.592,-9.521,12.695
0.229,-0.503,0.926,4.395,-7.568,12.268
0.230,-0.503,0.911,1.831,-6.042,12.207
0.230,-0.506,0.893,-0.244,-4.822,12.451
0.232,-0.507,0.875,-1.465,-4.761,12.512
0.229,-0.510,0.864,-1.953,-4.944,13.184
0.225,-0.512,0.863,-1.282,-5.310,13.855
0.226,-0.511,0.864,0.183,-5.859,14.282
0.227,-0.507,0.871,2.197,-6.165,14.709
0.222,-0.508,0.879,4.150,-6.165,15.076
0.220,-0.500,0.875,5.432,-6.226,15.137
0.222,-0.493,0.872,6.042,-5.615,15.076
0.219,-0.487,0.863,6.226,-4.700,14.954
0.215,-0.485,0.851,6.287,-4.089,14.893
0.215,-0.487,0.842,5.981,-4.089,14.404
0.213,-0.489,0.835,5.249,-4.639,13.916
0.215,-0.491,0.829,4.456,-4.944,13.977
0.215,-0.494,0.823,3.967,-5.005,13.977
0.215,-0.498,0.819,3.967,-5.188,13.977
0.216,-0.500,0.813,4.272,-5.249,13.977
0.214,-0.502,0.814,4.761,-5.798,14.282
0.215,-0.504,0.812,4.822,-6.714,14.404
0.215,-0.508,0.815,4.578,-8.179,14.648
0.215,-0.508,0.823,4.089,-9.705,14.709
0.219,-0.505,0.830,3.601,-10.681,15.198
0.223,-0.502,0.835,4.089,-11.047,15.503
0.220,-0.505,0.835,4.944,-10.681,15.625
0.219,-0.507,0.828,5.310,-9.949,15.625
0.222,-0.507,0.816,5.310,-9.399,15.381
0.221,-0.505,0.801,5.005,-9.705,15.686
0.218,-0.501,0.790,5.127,-10.132,16.174
0.215,-0.501,0.788,5.554,-11.475,16.479
0.211,-0.503,0.796,6.226,-13.123,16.663
0.209,-0.505,0.815,6.592,-14.771,16.968
0.212,-0.506,0.840,7.019,-16.357,17.212
0.219,-0.510,0.864,7.446,-17.517,17.151
0.225,-0.515,0.883,7.629,-17.334,16.846
0.230,-0.515,0.891,7.202,-16.418,17.029
0.229,-0.518,0.892,6.470,-15.076,17.578
0.228,-0.521,0.888,5.310,-13.977,17.761
0.229,-0.524,0.884,4.639,-13.489,18.066
0.231,-0.523,0.885,4.028,-13.550,18.372
0.237,-0.519,0.883,4.395,-13.000,18.555
0.240,-0.516,0.884,5.371,-12.329,18.677
0.240,-0.512,0.882,6.653,-11.719,19.104
0.241,-0.510,0.880,7.324,-10.925,19.470
0.241,-0.506,0.873,6.836,-10.315,19.836
0.245,-0.498,0.867,5.493,-10.071,19.958
0.245,-0.491,0.860,4.150,-10.864,20.142
0.241,-0.485,0.856,3.174,-11.658,20.264
0.247,-0.484,0.857,2.991,-11.963,20.020
0.250,-0.489,0.858,3.479,-11.963,19.104
0.257,-0.495,0.863,4.456,-11.475,18.188
0.260,-0.501,0.867,5.493,-11.169,18.372
0.265,-0.506,0.871,6.409,-10.986,18.738
0.265,-0.505,0.878,6.409,-11.108,19.592
0.261,-0.500,0.884,6.104,-11.108,20.142
0.261,-0.491,0.885,5.615,-10.681,20.386
0.259,-0.482,0.885,5.127,-10.010,20.325
0.260,-0.476,0.883,5.127,-9.216,19.958
0.265,-0.474,0.880,5.432,-8.301,19.165
0.266,-0.474,0.872,5.676,-7.812,18.494
0.267,-0.476,0.868,5.737,-7.385,17.883
0.268,-0.475,0.868,5.432,-6.836,17.456
0.268,-0.478,0.865,4.944,-6.775,17.212
0.268,-0.480,0.864,4.456,-6.836,17.029
0.267,-0.481,0.862,3.540,-6.775,16.968
0.266,-0.479,0.861,3.113,-6.592,16.968
0.267,-0.477,0.858,2.930,-6.165,16.724
0.266,-0.472,0.854,2.869,-5.371,16.846
0.263,-0.467,0.851,2.747,-5.188,16.785
0.263,-0.458,0.848,2.869,-5.249,16.296
0.265,-0.450,0.847,2.930,-5.798,16.052
0.267,-0.447,0.849,3.540,-6.104,15.320
0.269,-0.445,0.849,3.967,-6.104,14.282
0.268,-0.444,0.846,3.967,-5.615,13.428
0.267,-0.443,0.841,3.662,-5.005,12.756
0.267,-0.451,0.839,3.479,-5.005,12.207
0.265,-0.461,0.837,2.991,-5.310,11.169
0.269,-0.469,0.835,2.502,-5.127,10.132
0.272,-0.475,0.834,2.197,-5.493,9.949
0.270,-0.477,0.836,2.686,-5.981,10.132
0.266,-0.479,0.844,3.418,-7.263,10.620
0.267,-0.476,0.857,3.967,-8.301,10.681
0.269,-0.474,0.869,4.028,-8.301,10.620
0.267,-0.474,0.877,3.967,-7.141,10.132
0.266,-0.474,0.880,3.296,-6.104,9.583
0.270,-0.475,0.880,2.563,-5.371,8.911
0.274,-0.474,0.874,1.953,-4.578,8.301
0.275,-0.473,0.869,1.465,-3.845,8.057
0.275,-0.474,0.865,1.343,-3.113,7.690
0.278,-0.474,0.858,1.709,-2.686,7.263
0.281,-0.478,0.852,2.136,-2.502,6.714
0.280,-0.482,0.849,2.502,-2.197,6.409
0.279,-0.484,0.846,2.625,-2.136,6.470
0.278,-0.486,0.841,2.319,-2.197,6.592
0.275,-0.486,0.838,1.648,-2.441,6.836
0.276,-0.486,0.836,1.404,-2.991,6.653
0.277,-0.486,0.836,1.282,-3.479,6.348
0.275,-0.488,0.839,0.916,-4.028,6.409
0.271,-0.489,0.844,0.732,-4.700,6.470
0.271,-0.485,0.855,1.038,-4.700,6.531
0.277,-0.480,0.862,1.953,-4.700,6.165
0.280,-0.477,0.869,3.113,-4.089,5.859
0.276,-0.476,0.872,4.028,-3.113,5.493
0.275,-0.477,0.871,3.967,-2.319,5.371
0.275,-0.481,0.866,3.052,-2.136,5.066
0.276,-0.482,0.860,1.221,-1.831,4.272
0.279,-0.480,0.853,-0.305,-1.648,3.784
0.284,-0.479,0.843,-0.610,-1.343,3.601
0.284,-0.479,0.833,-0.061,-1.038,3.723
0.281,-0.477,0.828,0.732,-1.038,3.906
0.278,-0.474,0.824,1.831,-1.526,3.662
0.278,-0.472,0.828,2.686,-2.075,3.418
0.277,-0.469,0.834,3.357,-2.441,3.357
0.274,-0.467,0.839,3.601,-2.563,3.174
0.271,-0.466,0.846,3.296,-2.930,2.747
0.270,-0.465,0.855,2.380,-3.174,2.197
0.271,-0.463,0.865,1.648,-2.991,1.709
0.275,-0.469,0.869,1.404,-2.380,0.977
0.279,-0.475,0.866,1.038,-1.526,0.244
0.275,-0.480,0.862,0.549,-0.793,-0.183
0.287,-0.483,0.858,0.305,-0.183,-0.488
0.287,-0.484,0.852,0.122,-0.610,-0.244
0.282,-0.484,0.849,0.488,-0.732,0.122
0.278,-0.484,0.846,0.671,-0.671,0.366
0.277,-0.486,0.841,0.793,-0.610,0.000
0.274,-0.488,0.838,0.854,-0.977,-0.305
0.272,-0.490,0.844,0.671,-1.404,-0.488
0.270,-0.488,0.853,0.610,-1.953,-0.427
0.269,-0.484,0.865,1.160,-2.136,-0.366
0.265,-0.482,0.877,1.953,-1.709,-0.366
0.258,-0.481,0.880,2.319,-0.977,-0.549
0.254,-0.483,0.877,1.648,0.000,-0.793
0.254,-0.483,0.864,0.122,0.916,-1.221
0.256,-0.484,0.848,-1.831,1.404,-1.770
0.257,-0.487,0.833,-2.869,1.343,-2.258
0.262,-0.493,0.823,-2.869,1.038,-2.319
0.264,-0.501,0.818,-2.014,0.610,-2.380
0.263,-0.517,0.819,-0.977,-0.244,-2.502
0.271,-0.525,0.822,-0.549,-0.977,-2.258
0.277,-0.525,0.828,-0.244,-1.526,-1.465
0.274,-0.519,0.838,0.183,-2.136,-0.549
0.271,-0.513,0.848,0.854,-2.502,0.061
0.266,-0.507,0.859,1.587,-2.258,0.305
0.261,-0.501,0.867,1.709,-2.014,0.122
0.263,-0.500,0.877,1.770,-1.892,-0.305
0.263,-0.504,0.880,1.770,-1.282,-0.671
0.262,-0.508,0.877,1.160,-0.122,-0.793
0.263,-0.513,0.869,0.244,0.793,-0.793
0.262,-0.518,0.862,-0.488,1.038,-0.671
0.262,-0.520,0.859,-0.671,0.793,-0.305
0.264,-0.520,0.863,-0.488,0.305,0.122
0.265,-0.521,0.869,0.305,0.183,0.366
0.267,-0.525,0.875,1.282,0.000,0.427
0.271,-0.530,0.881,1.892,0.122,0.366
0.276,-0.531,0.884,1.709,0.366,0.488
0.279,-0.526,0.882,1.526,0.732,1.282
0.275,-0.521,0.875,0.977,1.404,2.136
0.272,-0.512,0.868,0.183,2.075,2.625
0.268,-0.506,0.856,-0.183,2.808,2.869
0.263,-0.503,0.846,-0.305,3.235,2.808
0.262,-0.502,0.839,0.183,3.357,2.563
0.265,-0.505,0.835,0.854,3.479,2.258
0.267,-0.510,0.834,2.075,3.723,1.892
0.266,-0.511,0.833,2.747,3.723,2.258
0.267,-0.510,0.837,2.686,3.174,2.808
0.270,-0.509,0.844,2.502,2.014,3.113
0.270,-0.505,0.856,1.892,0.977,3.418
0.276,-0.501,0.868,1.709,0.854,3.357
0.282,-0.501,0.876,1.953,1.465,3.174
0.288,-0.505,0.874,1.953,2.563,2.930
0.290,-0.507,0.866,1.587,3.906,2.747
0.290,-0.509,0.860,0.549,4.822,2.930
0.292,-0.508,0.851,-0.061,5.249,3.174
0.295,-0.507,0.840,-0.183,5.310,3.479
0.293,-0.505,0.829,-0.305,5.188,3.662
0.292,-0.503,0.824,0.183,4.883,4.150
0.289,-0.505,0.825,1.038,3.967,4.700
0.283,-0.504,0.837,1.831,2.869,5.188
0.281,-0.505,0.852,2.686,2.075,5.310
0.285,-0.502,0.864,3.662,2.014,5.066
0.282,-0.503,0.873,4.517,2.686,5.127
0.283,-0.504,0.881,5.066,3.479,5.127
0.287,-0.511,0.890,5.249,4.028,4.578
0.293,-0.520,0.894,4.944,4.517,4.150
0.300,-0.527,0.894,3.357,5.310,4.272
0.300,-0.530,0.891,2.319,6.165,4.639
0.299,-0.535,0.885,2.197,7.019,5.432
0.293,-0.533,0.874,2.319,8.057,6.592
0.282,-0.527,0.862,2.319,8.972,7.812
0.273,-0.516,0.843,2.747,9.583,8.728
0.266,-0.511,0.828,3.052,10.071,9.094
0.260,-0.505,0.812,2.563,9.949,9.277
0.256,-0.501,0.803,1.709,9.155,9.155
0.254,-0.505,0.800,1.404,7.507,8.667
0.256,-0.508,0.804,1.404,5.920,8.606
0.260,-0.512,0.814,2.258,4.700,8.667
0.267,-0.521,0.821,3.662,4.578,8.484
0.276,-0.524,0.822,4.333,4.944,8.728
0.282,-0.524,0.820,4.761,5.066,9.277
0.292,-0.522,0.818,4.883,4.395,9.827
0.296,-0.516,0.816,4.761,3.906,10.498
0.300,-0.516,0.817,4.761,3.723,10.620
0.306,-0.522,0.818,5.005,3.845,10.254
0.315,-0.524,0.814,5.310,3.723,10.193
0.323,-0.529,0.809,5.371,3.723,10.254
0.325,-0.533,0.802,5.737,4.211,10.864
0.321,-0.534,0.791,6.104,4.456,11.780
0.319,-0.534,0.778,5.859,4.150,12.329
0.318,-0.533,0.767,5.615,3.296,13.000
0.317,-0.530,0.763,5.859,1.953,13.794
0.316,-0.527,0.767,6.714,0.916,14.526
0.317,-0.524,0.776,7.996,-0.488,15.076
0.320,-0.522,0.787,9.583,-1.099,15.503
0.326,-0.517,0.792,10.803,-1.404,15.686
0.329,-0.514,0.797,11.353,-1.465,15.564
0.328,-0.513,0.800,11.536,-1.526,15.808
0.330,-0.509,0.802,10.803,-1.709,15.991
0.333,-0.508,0.805,9.705,-2.258,15.930
0.337,-0.512,0.811,8.789,-2.197,15.991
0.341,-0.514,0.811,8.484,-1.648,16.113
0.345,-0.515,0.802,7.568,-1.282,16.357
0.346,-0.515,0.789,7.202,-0.977,16.724
0.346,-0.517,0.779,7.263,-1.343,17.212
0.346,-0.510,0.772,7.690,-1.953,17.578
0.351,-0.508,0.770,8.484,-2.686,17.883
0.346,-0.503,0.771,9.766,-3.723,17.883
0.354,-0.500,0.772,10.986,-3.540,18.066
0.353,-0.499,0.770,12.573,-3.174,18.005
0.348,-0.503,0.773,13.306,-4.089,17.639
0.347,-0.506,0.784,12.329,-5.554,17.639
0.353,-0.503,0.795,10.681,-6.287,17.700
0.359,-0.501,0.801,9.949,-6.287,17.761
0.366,-0.500,0.797,10.376,-5.798,17.761
0.365,-0.501,0.792,10.864,-5.981,17.822
0.364,-0.497,0.788,10.681,-6.592,18.250
0.371,-0.492,0.782,10.010,-6.958,18.188
0.374,-0.487,0.769,9.338,-6.775,18.066
0.374,-0.484,0.754,8.484,-6.348,17.639
0.374,-0.484,0.742,7.751,-6.226,17.700
0.369,-0.481,0.732,7.202,-6.897,18.066
0.372,-0.475,0.728,6.348,-8.179,18.127
0.377,-0.474,0.734,6.042,-9.644,17.700
0.377,-0.476,0.749,6.592,-11.169,17.395
0.379,-0.480,0.767,8.179,-12.146,17.029
0.379,-0.484,0.783,9.644,-12.451,16.724
0.379,-0.477,0.797,9.949,-12.390,16.418
0.381,-0.470,0.807,9.949,-12.573,15.503
0.389,-0.467,0.815,9.949,-12.512,14.526
0.386,-0.468,0.819,9.277,-11.414,14.038
0.386,-0.469,0.821,8.301,-10.254,13.672
0.395,-0.476,0.818,7.446,-9.644,12.451
0.401,-0.482,0.811,6.592,-9.094,11.353
0.405,-0.485,0.799,5.798,-8.301,11.169
0.409,-0.485,0.780,5.249,-7.385,11.292
0.409,-0.482,0.760,5.249,-7.263,11.414
0.410,-0.477,0.747,5.005,-7.996,11.475
0.411,-0.471,0.736,4.883,-8.789,11.353
0.414,-0.463,0.727,4.700,-9.766,11.414
0.404,-0.465,0.731,4.639,-10.437,11.536
0.393,-0.473,0.751,4.395,-12.390,11.230
0.404,-0.481,0.774,4.517,-13.916,10.315
0.413,-0.492,0.794,4.578,-14.282,9.827
0.409,-0.495,0.812,5.127,-13.794,9.766
0.409,-0.499,0.831,6.165,-13.367,9.827
0.409,-0.494,0.838,7.019,-12.634,9.766
0.403,-0.489,0.838,6.714,-11.597,9.766
0.394,-0.487,0.827,6.042,-10.132,9.766
0.383,-0.481,0.806,4.944,-8.423,9.766
0.367,-0.469,0.776,3.418,-7.751,10.132
0.348,-0.451,0.741,2.197,-7.507,10.559
0.331,-0.426,0.709,1.038,-7.751,10.742
0.319,-0.411,0.697,0.000,-9.094,10.559
0.315,-0.386,0.685,-0.610,-11.230,9.583
0.312,-0.362,0.682,-0.305,-13.733,7.629
0.316,-0.369,0.699,0.854,-16.663,4.272
0.318,-0.416,0.742,2.686,-19.409,0.183
0.347,-0.491,0.790,4.089,-22.095,-4.578
0.394,-0.550,0.830,4.150,-23.010,-8.179
0.431,-0.580,0.861,3.784,-22.400,-7.385
0.438,-0.592,0.894,4.578,-21.484,-3.235
0.442,-0.592,0.924,5.981,-18.982,1.404
0.424,-0.568,0.939,5.798,-16.479,5.066
0.394,-0.529,0.937,4.578,-14.526,7.751
0.384,-0.493,0.930,3.479,-12.085,8.240
0.376,-0.472,0.913,2.258,-9.766,7.202
0.368,-0.466,0.894,0.854,-7.629,4.822
0.371,-0.473,0.876,-0.122,-6.042,2.075
0.384,-0.489,0.857,-0.427,-4.761,-0.122
0.391,-0.503,0.833,0.000,-3.357,-0.916
0.388,-0.514,0.811,1.160,-2.686,-0.549
0.383,-0.517,0.791,2.930,-2.869,0.610
0.375,-0.506,0.773,3.784,-3.906,1.892
0.363,-0.487,0.763,4.639,-5.371,2.869
0.355,-0.466,0.760,6.042,-6.653,3.296
0.349,-0.452,0.758,7.385,-7.263,2.869
0.345,-0.442,0.756,8.118,-7.568,2.075
0.341,-0.441,0.752,8.179,-7.568,0.793
0.338,-0.445,0.754,7.324,-7.507,-0.244
0.334,-0.445,0.762,5.615,-8.362,-0.671
0.333,-0.442,0.767,3.235,-9.583,-1.038
0.334,-0.434,0.764,0.305,-10.071,-1.709
0.328,-0.429,0.760,-1.953,-10.010,-2.197
0.317,-0.427,0.758,-2.747,-10.376,-3.052
0.319,-0.424,0.762,-2.136,-11.536,-4.456
0.331,-0.421,0.767,-0.977,-12.512,-6.348
0.336,-0.423,0.772,0.366,-12.878,-7.812
0.335,-0.425,0.777,1.587,-13.000,-8.606
0.336,-0.425,0.779,2.258,-13.000,-9.155
0.328,-0.426,0.784,1.892,-13.062,-9.399
0.308,-0.428,0.808,1.404,-13.794,-9.827
0.301,-0.441,0.843,1.038,-15.564,-11.169
0.311,-0.465,0.866,0.061,-15.808,-13.672
0.305,-0.482,0.882,-2.197,-14.038,-15.320
0.302,-0.494,0.891,-3.540,-12.451,-16.052
0.309,-0.508,0.894,-2.991,-10.681,-16.052
0.301,-0.519,0.897,-2.197,-9.766,-15.625
0.297,-0.516,0.907,-2.075,-9.888,-15.747
0.305,-0.512,0.912,-1.709,-9.521,-15.930
0.302,-0.511,0.907,-1.648,-7.812,-15.686
0.294,-0.508,0.901,-1.953,-6.104,-15.442
0.298,-0.508,0.894,-2.136,-5.127,-15.808
0.302,-0.502,0.877,-2.380,-4.517,-16.296
0.302,-0.490,0.857,-2.808,-3.418,-15.991
0.286,-0.481,0.843,-2.258,-2.441,-15.442
0.272,-0.494,0.829,-0.671,-1.587,-16.235
0.264,-0.506,0.812,-0.244,-1.099,-17.578
0.255,-0.523,0.808,0.061,-1.526,-18.616
0.257,-0.547,0.818,1.404,-2.075,-18.860
0.265,-0.571,0.836,4.028,-2.869,-19.470
0.272,-0.589,0.854,5.981,-3.418,-19.897
0.276,-0.602,0.872,5.859,-4.333,-19.043
0.281,-0.609,0.892,4.883,-5.127,-17.395
0.286,-0.606,0.897,3.479,-4.700,-15.503
0.284,-0.604,0.895,2.136,-3.235,-13.489
0.282,-0.596,0.880,0.854,-1.465,-12.451
0.279,-0.593,0.861,-0.244,-0.183,-12.573
0.276,-0.600,0.839,-1.404,0.793,-12.451
0.269,-0.608,0.824,-2.014,1.343,-11.597
0.268,-0.615,0.813,-2.075,1.282,-10.376
0.261,-0.620,0.807,-1.770,0.549,-9.644
0.259,-0.625,0.806,-0.916,-0.488,-8.789
0.263,-0.624,0.812,0.366,-1.221,-7.751
0.266,-0.616,0.812,1.831,-1.465,-6.348
0.262,-0.607,0.809,3.418,-1.465,-4.822
0.256,-0.594,0.805,4.578,-1.709,-3.418
0.250,-0.580,0.797,4.639,-1.770,-2.319
0.248,-0.563,0.785,4.395,-1.526,-1.770
0.248,-0.546,0.770,4.089,-1.526,-1.587
0.250,-0.535,0.759,3.845,-1.831,-1.526
0.248,-0.525,0.748,3.784,-2.563,-1.465
0.245,-0.514,0.746,2.808,-3.723,-1.343
0.240,-0.507,0.744,1.648,-4.944,-1.465
0.232,-0.503,0.743,0.793,-6.042,-1.648
0.228,-0.502,0.743,0.000,-7.629,-2.258
0.228,-0.502,0.748,-0.305,-9.094,-3.357
0.234,-0.501,0.749,0.305,-10.132,-4.395
0.237,-0.504,0.748,1.038,-10.437,-4.883
0.238,-0.505,0.742,1.953,-10.559,-5.249
0.234,-0.513,0.737,2.808,-11.230,-5.554
0.226,-0.523,0.739,2.258,-12.573,-5.737
0.216,-0.534,0.747,1.221,-14.343,-6.104
0.201,-0.547,0.782,0.061,-16.663,-6.348
0.203,-0.562,0.837,0.366,-20.020,-7.141
0.220,-0.572,0.899,2.014,-22.095,-7.996
0.233,-0.581,0.950,4.089,-21.667,-8.118
0.237,-0.589,0.985,5.737,-18.799,-7.751
0.243,-0.599,0.999,6.653,-14.648,-7.507
0.255,-0.612,0.994,5.554,-10.864,-7.446
0.264,-0.614,0.974,2.686,-7.385,-6.958
0.263,-0.610,0.943,-0.305,-4.150,-5.798
0.252,-0.606,0.908,-2.686,-2.136,-3.845
0.243,-0.597,0.882,-3.845,-1.587,-2.319
0.244,-0.586,0.867,-3.296,-1.709,-1.709
0.236,-0.583,0.860,-1.709,-1.404,-1.160
0.222,-0.583,0.858,-0.061,-1.282,-0.854
0.214,-0.583,0.861,0.854,-1.648,-0.610
0.213,-0.579,0.867,1.343,-2.197,-0.549
0.215,-0.568,0.870,1.709,-1.831,-0.183
0.211,-0.556,0.865,2.075,-1.221,0.305
0.207,-0.547,0.855,2.380,-0.549,0.549
0.206,-0.540,0.846,2.075,0.183,0.427
0.207,-0.536,0.837,1.038,0.366,-0.061
0.213,-0.539,0.827,0.061,0.732,-0.732
0.216,-0.548,0.815,-0.916,0.916,-1.160
0.217,-0.553,0.803,-2.075,0.977,-1.282
0.221,-0.553,0.794,-2.686,0.427,-1.160
0.224,-0.554,0.787,-2.075,-0.244,-0.977
0.220,-0.554,0.782,-0.977,-0.671,-0.488
0.216,-0.552,0.785,0.427,-1.282,-0.427
0.213,-0.554,0.797,2.014,-2.502,-0.488
0.211,-0.557,0.817,2.747,-3.479,-0.427
0.213,-0.558,0.835,3.235,-4.028,-0.305
0.221,-0.557,0.846,3.113,-4.395,-0.427
0.224,-0.556,0.853,2.869,-3.967,-0.305
0.219,-0.550,0.851,2.563,-2.686,0.061
0.218,-0.546,0.841,1.831,-1.404,0.000
0.219,-0.545,0.825,0.916,-0.671,-0.366
0.220,-0.547,0.808,0.244,-0.488,-0.732
0.222,-0.551,0.794,-0.366,-0.854,-0.854
0.222,-0.553,0.783,-0.488,-0.977,-0.671
0.217,-0.556,0.774,-0.488,-0.977,-0.183
0.211,-0.558,0.768,-0.671,-1.953,0.244
0.204,-0.558,0.776,-0.488,-3.662,0.549
0.202,-0.558,0.796,0.122,-5.371,0.671
0.209,-0.553,0.813,0.916,-6.653,0.793
0.209,-0.550,0.831,2.319,-6.653,0.854
0.205,-0.551,0.847,3.357,-6.287,0.732
0.207,-0.555,0.865,3.845,-6.165,0.488
0.216,-0.556,0.876,3.540,-5.920,0.000
0.224,-0.555,0.877,2.502,-4.822,-0.427
0.226,-0.555,0.873,0.977,-3.540,-0.122
0.224,-0.558,0.866,0.183,-2.319,-0.183
0.227,-0.562,0.855,-0.488,-1.770,-0.366
0.225,-0.564,0.850,-1.221,-1.892,-0.061
0.225,-0.561,0.851,-2.075,-2.563,0.427
0.228,-0.553,0.852,-1.831,-2.808,1.221
0.226,-0.548,0.849,-0.793,-2.258,1.648
0.218,-0.541,0.847,0.122,-1.587,1.648
0.211,-0.536,0.846,0.488,-1.404,1.221
0.212,-0.531,0.846,1.038,-1.343,0.977
0.214,-0.527,0.846,1.282,-1.099,0.671
0.212,-0.523,0.842,1.099,-0.671,0.488
0.210,-0.525,0.840,1.221,-0.183,0.061
0.206,-0.532,0.837,0.793,0.061,-0.427
0.209,-0.539,0.833,-0.061,-0.122,-0.854
0.213,-0.542,0.829,-1.282,-0.244,-0.977
0.214,-0.544,0.825,-1.831,-0.427,-0.854
0.214,-0.547,0.825,-1.465,-0.671,-0.610
0.213,-0.549,0.825,-0.732,-0.671,-0.610
0.214,-0.552,0.824,-0.061,-0.610,-0.732
0.218,-0.557,0.823,0.488,-0.671,-0.916
0.221,-0.559,0.824,0.610,-0.916,-0.916
0.224,-0.558,0.824,0.427,-1.282,-0.671
0.221,-0.554,0.821,0.000,-1.160,-0.183
0.218,-0.550,0.815,-0.610,-0.916,0.122
0.214,-0.546,0.810,-0.793,-0.977,0.183
0.207,-0.545,0.807,-1.038,-1.221,0.244
0.209,-0.548,0.811,-0.549,-1.648,-0.122
0.209,-0.551,0.814,-0.061,-2.014,-0.183
0.207,-0.552,0.825,0.183,-2.258,-0.244
0.210,-0.552,0.837,0.488,-2.930,-0.305
0.213,-0.549,0.845,0.549,-3.357,-0.061
0.212,-0.544,0.853,0.610,-2.747,0.122
0.214,-0.541,0.854,0.610,-2.136,0.122
0.218,-0.541,0.852,0.366,-1.465,-0.122
0.218,-0.544,0.846,0.000,-0.732,-0.488
0.223,-0.548,0.833,-0.977,-0.183,-0.854
0.225,-0.547,0.818,-2.136,0.183,-0.732
0.221,-0.547,0.811,-2.441,-0.183,-0.488
0.217,-0.550,0.808,-1.465,-0.916,-0.061
0.212,-0.557,0.812,-0.488,-1.282,-0.061
0.209,-0.562,0.819,0.183,-1.587,-0.183
0.214,-0.565,0.830,1.038,-2.136,-0.305
0.221,-0.560,0.844,2.014,-2.625,0.183
0.216,-0.557,0.857,2.441,-2.930,0.977
0.212,-0.545,0.865,1.831,-2.625,1.465
0.211,-0.541,0.867,0.732,-2.014,1.099
0.215,-0.539,0.865,-0.549,-1.221,0.427
0.218,-0.543,0.854,-1.831,-0.305,-0.122
0.219,-0.549,0.838,-2.625,0.916,-0.427
0.221,-0.555,0.822,-2.930,1.343,-0.610
0.226,-0.556,0.806,-2.808,1.221,-0.671
0.227,-0.556,0.796,-1.953,0.549,-0.122
0.218,-0.553,0.798,-0.977,-0.244,0.916
0.210,-0.546,0.808,-0.122,-1.160,1.526
0.206,-0.540,0.821,0.549,-2.136,1.648
0.206,-0.539,0.835,1.526,-2.686,1.343
0.206,-0.544,0.848,2.197,-2.502,0.854
0.209,-0.547,0.855,2.197,-1.953,0.427
0.215,-0.548,0.856,1.831,-1.343,0.061
0.220,-0.553,0.851,1.038,-0.916,0.061
0.219,-0.558,0.843,0.000,-0.488,0.061
0.223,-0.560,0.832,-1.282,-0.183,0.244
0.227,-0.558,0.820,-2.502,0.000,0.427
0.230,-0.550,0.803,-2.869,0.000,0.793
0.226,-0.545,0.790,-2.075,-0.244,1.526
0.215,-0.543,0.789,-0.610,-0.793,1.953
0.208,-0.545,0.798,0.671,-1.709,1.831
0.214,-0.550,0.812,1.526,-2.869,1.099
0.217,-0.548,0.831,1.709,-3.723,1.160
0.216,-0.547,0.847,1.770,-3.662,1.648
0.214,-0.546,0.854,1.526,-2.869,2.014
0.212,-0.549,0.861,0.977,-2.258,1.831
0.213,-0.553,0.872,0.244,-2.136,1.343
0.225,-0.559,0.882,-0.549,-2.136,0.977
0.231,-0.562,0.887,-1.648,-1.404,1.343
0.235,-0.560,0.881,-2.319,-0.122,1.709
0.238,-0.557,0.870,-2.380,0.916,2.014
0.236,-0.555,0.856,-2.502,1.404,2.258
0.227,-0.549,0.848,-3.052,1.404,2.991
0.223,-0.552,0.852,-2.686,1.160,3.296
0.225,-0.560,0.858,-2.869,0.671,3.052
0.226,-0.566,0.867,-2.991,0.916,2.686
0.225,-0.568,0.874,-3.174,1.038,3.174
0.229,-0.566,0.878,-2.441,1.465,3.845
0.230,-0.563,0.882,-1.221,1.709,4.089
0.230,-0.560,0.882,-0.366,2.686,4.395
0.230,-0.558,0.877,-0.610,3.662,4.517
0.231,-0.557,0.869,-1.526,4.456,4.883
0.231,-0.555,0.863,-2.502,5.066,4.883
0.234,-0.552,0.857,-3.845,5.066,5.188
0.234,-0.555,0.854,-4.150,5.859,5.371
0.232,-0.555,0.850,-4.089,6.165,5.676
0.236,-0.554,0.849,-3.174,5.798,5.493
0.241,-0.555,0.849,-2.075,5.920,5.493
0.243,-0.553,0.848,-1.465,6.287,6.104
0.240,-0.547,0.845,-1.160,6.531,6.958
0.237,-0.548,0.850,-0.427,6.226,7.263
0.243,-0.547,0.855,-0.549,5.737,7.080
0.249,-0.544,0.858,-0.671,5.798,7.080
0.253,-0.546,0.862,-0.488,6.104,7.324
0.259,-0.548,0.865,-0.549,6.348,7.263
0.264,-0.546,0.872,-1.526,6.348,7.446
0.273,-0.543,0.876,-2.502,7.019,7.751
0.281,-0.540,0.881,-2.625,7.690,8.057
0.289,-0.540,0.885,-2.319,8.545,8.118
0.299,-0.540,0.888,-1.709,9.766,8.118
0.307,-0.537,0.886,-1.221,11.169,8.118
0.314,-0.536,0.883,-0.549,12.085,8.484
0.318,-0.537,0.887,-0.244,12.634,8.728
0.322,-0.538,0.896,-0.305,12.817,8.484
0.328,-0.536,0.909,-0.549,13.184,8.240
0.339,-0.537,0.927,-0.061,13.733,8.057
0.346,-0.538,0.935,1.038,14.526,7.690
0.356,-0.541,0.941,1.709,16.418,7.935
0.367,-0.539,0.935,0.916,18.372,8.423
0.372,-0.524,0.919,-0.549,20.325,8.850
0.373,-0.508,0.897,-1.953,22.644,9.644
0.367,-0.496,0.869,-2.686,24.658,10.315
0.359,-0.487,0.845,-2.869,26.123,10.315
0.355,-0.483,0.833,-3.418,26.428,9.460
0.355,-0.483,0.834,-3.601,25.696,8.606
0.357,-0.485,0.847,-2.625,25.146,8.179
0.358,-0.488,0.861,-1.343,25.330,7.629
0.356,-0.491,0.873,0.244,26.062,7.507
0.360,-0.486,0.885,1.709,26.611,7.324
0.368,-0.476,0.889,3.174,27.466,6.958
0.375,-0.462,0.879,3.906,28.992,6.897
0.374,-0.452,0.865,3.784,30.518,6.531
0.372,-0.448,0.849,2.869,32.104,5.676
0.373,-0.443,0.829,0.549,33.325,4.639
0.375,-0.437,0.807,-2.380,34.119,3.540
0.377,-0.433,0.788,-5.066,34.119,2.808
0.376,-0.428,0.777,-6.836,33.936,2.441
0.372,-0.432,0.768,-7.141,33.325,1.892
0.370,-0.440,0.763,-6.836,32.654,0.977
0.374,-0.439,0.758,-6.653,32.593,0.061
0.380,-0.432,0.750,-5.737,32.410,-0.305
0.385,-0.418,0.743,-4.211,32.104,-0.610
0.385,-0.400,0.735,-2.930,31.433,-0.732
0.387,-0.384,0.724,-1.953,31.006,-1.709
0.395,-0.377,0.713,-1.343,30.884,-3.784
0.398,-0.385,0.709,-1.282,30.640,-6.409
0.405,-0.411,0.716,-1.770,29.297,-9.033
0.419,-0.438,0.724,-3.174,27.466,-11.353
0.437,-0.461,0.730,-5.188,26.489,-12.512
0.443,-0.475,0.727,-7.568,26.428,-11.902
0.438,-0.477,0.721,-9.216,26.550,-10.193
0.432,-0.467,0.716,-9.949,26.062,-8.423
0.431,-0.447,0.717,-9.705,24.902,-7.324
0.430,-0.423,0.720,-8.789,23.804,-6.958
0.422,-0.399,0.721,-7.263,23.132,-7.568
0.416,-0.384,0.713,-5.493,22.888,-9.399

0.316,-0.392,0.864,-46.692,-61.707,-22.339
0.392,-0.335,0.855,-51.758,-61.157,-22.217
0.277,-0.308,0.951,-62.378,-62.012,-26.917
0.305,-0.349,0.963,-56.213,-64.209,-30.518
0.320,-0.359,0.937,-53.589,-53.162,-28.259
0.334,-0.361,0.952,-48.279,-45.959,-17.761
0.286,-0.373,0.916,-48.096,-51.392,-5.066
0.257,-0.352,0.875,-50.964,-51.453,0.122
0.273,-0.375,0.890,-48.401,-53.162,6.226
0.316,-0.377,0.955,-42.725,-58.228,14.038
0.305,-0.354,1.001,-35.217,-55.481,20.569
0.293,-0.321,1.019,-25.208,-43.762,25.940
0.282,-0.291,1.029,-15.381,-31.555,30.029
0.267,-0.258,1.011,-6.226,-22.766,33.142
0.240,-0.237,0.963,1.404,-14.648,36.804
0.193,-0.259,0.924,6.409,-8.850,40.955
0.126,-0.313,0.866,4.028,-6.409,46.265
0.198,-0.070,1.057,-1.953,-4.150,54.565
0.304,-0.221,0.996,17.639,16.724,28.748
0.302,-0.239,0.866,10.742,28.870,-0.305
0.274,-0.171,0.774,6.287,21.912,-2.930
0.246,-0.190,0.798,19.714,10.620,-4.272
0.246,-0.208,0.828,31.982,7.324,-4.517
0.238,-0.239,0.859,37.109,8.423,-7.751
0.238,-0.283,0.880,39.978,6.653,-13.000
0.255,-0.230,0.943,37.109,4.395,-18.188
0.275,-0.291,0.884,38.696,3.357,-21.240
0.278,-0.342,0.913,57.007,12.573,-29.419
0.280,-0.327,0.928,49.744,19.409,-30.823
0.271,-0.394,0.867,53.101,24.048,-34.729
0.280,-0.432,0.886,54.260,23.499,-36.377
0.258,-0.422,0.930,46.143,23.315,-37.476
0.273,-0.387,0.933,30.823,28.381,-45.898
0.335,-0.450,0.858,23.315,35.645,-56.274
0.338,-0.534,0.857,34.485,31.982,-49.561
0.339,-0.565,0.876,44.922,25.574,-33.630
0.313,-0.529,0.875,42.908,22.461,-17.761
0.296,-0.494,0.881,35.400,17.700,-9.827
0.298,-0.490,0.905,28.015,10.620,-6.165
0.298,-0.482,0.917,21.851,7.080,-2.930
0.296,-0.469,0.919,17.456,6.958,-0.244
0.292,-0.464,0.913,14.648,7.751,2.197
0.292,-0.453,0.896,12.451,9.460,2.930
0.285,-0.439,0.878,9.766,10.986,2.747
0.289,-0.438,0.864,8.301,10.193,2.014
0.295,-0.440,0.860,6.958,7.996,1.282
0.296,-0.447,0.855,5.554,6.165,1.343
0.292,-0.449,0.856,4.272,5.066,0.610
0.291,-0.447,0.850,3.052,4.761,0.183
0.298,-0.451,0.839,2.380,4.333,-0.916
0.304,-0.458,0.830,2.563,4.150,-1.343
0.302,-0.455,0.816,2.930,4.822,-1.282
0.302,-0.450,0.802,3.418,6.042,-0.916
0.292,-0.439,0.780,3.906,7.629,-0.549
0.288,-0.440,0.764,4.578,9.521,-0.732
0.286,-0.446,0.748,5.005,10.498,-1.099
0.288,-0.452,0.736,4.883,10.254,-1.465
0.292,-0.467,0.748,4.639,8.606,-2.014
0.288,-0.470,0.754,3.906,4.639,-1.709
0.305,-0.474,0.772,3.540,0.916,-1.343
0.311,-0.475,0.787,3.845,-0.793,-0.793
0.309,-0.478,0.799,4.883,-1.648,-0.305
0.311,-0.486,0.801,5.432,-2.991,-0.366
0.311,-0.491,0.803,4.578,-5.371,-0.549
0.305,-0.486,0.797,2.625,-6.409,0.122
0.300,-0.478,0.792,1.038,-5.676,1.099
0.301,-0.470,0.781,0.366,-5.737,1.282
0.302,-0.468,0.774,-0.061,-7.202,1.038
0.291,-0.473,0.784,-0.671,-8.972,1.770
0.279,-0.470,0.800,-1.404,-11.841,2.930
0.282,-0.460,0.826,-0.977,-15.808,3.906
0.286,-0.462,0.862,0.488,-19.104,4.517
0.287,-0.462,0.897,2.319,-20.874,5.066
0.286,-0.459,0.918,4.089,-20.325,5.310
0.283,-0.458,0.934,6.531,-18.372,5.432
0.278,-0.463,0.946,9.094,-16.602,5.127
0.289,-0.464,0.955,10.498,-14.404,4.456
0.304,-0.468,0.954,10.986,-11.841,3.113
0.309,-0.474,0.945,9.766,-9.277,2.869
0.300,-0.475,0.931,6.958,-7.507,3.540
0.291,-0.474,0.913,3.662,-6.226,4.822
0.283,-0.465,0.896,0.916,-5.676,5.798
0.274,-0.463,0.885,0.183,-5.615,6.226
0.265,-0.467,0.882,1.770,-5.798,5.981
0.274,-0.472,0.882,4.578,-6.287,5.615
0.272,-0.475,0.893,8.057,-7.263,5.554
0.265,-0.480,0.902,11.292,-6.531,5.615
0.269,-0.489,0.906,13.855,-6.287,5.066
0.275,-0.502,0.915,15.320,-5.981,4.272
0.283,-0.514,0.922,15.320,-5.432,3.967
0.282,-0.524,0.930,13.794,-5.554,4.028
0.294,-0.529,0.927,11.902,-4.883,4.395
0.294,-0.531,0.918,10.559,-3.296,5.249
0.290,-0.533,0.902,9.460,-1.709,6.470
0.297,-0.534,0.889,8.545,-1.160,7.751
0.290,-0.533,0.879,7.629,-1.709,8.606
0.277,-0.528,0.869,6.592,-2.258,10.132
0.266,-0.526,0.868,5.737,-2.808,11.475
0.261,-0.526,0.869,6.470,-2.869,11.780
0.261,-0.532,0.871,7.812,-2.502,11.169
0.271,-0.542,0.874,9.888,-1.709,10.376
0.279,-0.553,0.875,12.390,-0.793,10.864
0.285,-0.559,0.872,14.709,0.305,12.207
0.286,-0.567,0.870,16.052,0.671,13.550
0.285,-0.567,0.864,16.968,0.427,14.954
0.290,-0.566,0.859,16.846,0.244,16.113
0.288,-0.569,0.856,15.930,-0.061,17.578
0.288,-0.573,0.852,14.648,0.061,19.165
0.287,-0.570,0.846,12.634,-0.183,20.142
0.290,-0.573,0.836,10.071,0.122,20.935
0.291,-0.569,0.823,7.935,1.038,21.790
0.288,-0.568,0.807,6.409,1.526,22.705
0.300,-0.564,0.789,6.104,1.892,24.048
0.301,-0.565,0.778,6.836,1.038,25.269
0.291,-0.556,0.769,7.812,-0.671,26.855
0.292,-0.543,0.766,9.338,-2.197,28.748
0.306,-0.534,0.766,11.963,-3.601,30.090
0.309,-0.521,0.768,13.855,-5.920,31.128
0.298,-0.508,0.775,14.282,-8.118,32.593
0.293,-0.495,0.786,13.855,-9.766,33.325
0.301,-0.485,0.795,13.550,-10.620,32.837
0.312,-0.478,0.794,13.611,-10.193,32.166
0.318,-0.471,0.786,13.794,-9.216,32.043
0.321,-0.465,0.774,13.916,-8.179,32.227
0.317,-0.456,0.764,13.245,-8.606,32.166
0.319,-0.457,0.758,12.390,-10.071,31.799
0.319,-0.452,0.752,10.803,-11.536,31.677
0.320,-0.447,0.749,9.216,-12.329,31.860
0.317,-0.444,0.748,8.728,-13.794,31.616
0.323,-0.439,0.753,9.399,-15.503,30.945
0.319,-0.438,0.768,10.620,-17.456,30.579
0.315,-0.442,0.788,12.573,-19.043,29.968
0.325,-0.443,0.806,14.099,-20.325,28.809
0.334,-0.444,0.821,15.320,-20.569,28.015
0.335,-0.442,0.834,15.808,-20.874,28.259
0.337,-0.435,0.843,15.137,-20.813,28.870
0.330,-0.429,0.853,13.245,-20.508,28.992
0.328,-0.427,0.859,10.803,-19.836,28.320
0.331,-0.427,0.862,8.545,-18.860,27.222
0.336,-0.433,0.861,7.446,-17.517,25.696
0.334,-0.442,0.861,7.263,-16.479,24.963
0.329,-0.453,0.864,7.507,-15.808,23.682
0.330,-0.465,0.870,7.996,-15.381,22.827
0.338,-0.470,0.873,9.277,-14.954,22.461
0.345,-0.475,0.880,11.414,-14.404,22.644
0.345,-0.479,0.888,13.306,-14.099,22.888
0.343,-0.477,0.891,13.306,-14.038,22.827
0.349,-0.474,0.887,12.146,-13.550,22.522
0.356,-0.475,0.879,10.376,-12.085,22.339
0.358,-0.476,0.863,8.789,-10.925,21.851
0.364,-0.479,0.845,7.446,-9.827,21.606
0.369,-0.481,0.825,6.165,-9.644,21.362
0.372,-0.481,0.809,5.188,-9.277,21.606
0.371,-0.481,0.795,5.188,-8.850,21.973
0.357,-0.484,0.789,6.104,-9.460,22.583
0.354,-0.494,0.791,7.263,-10.620,22.583
0.355,-0.500,0.793,7.629,-11.475,22.095
0.361,-0.498,0.797,8.301,-12.512,22.034
0.366,-0.495,0.804,9.766,-12.878,23.010
0.363,-0.489,0.814,11.353,-13.550,23.926
0.364,-0.482,0.825,12.268,-14.343,24.353
0.365,-0.478,0.839,12.024,-14.709,23.926
0.368,-0.471,0.841,10.559,-13.733,23.560
0.370,-0.466,0.837,9.155,-12.451,23.376
0.372,-0.464,0.830,7.874,-11.719,23.499
0.370,-0.460,0.823,6.836,-10.925,22.827
0.369,-0.459,0.813,6.042,-10.437,22.217
0.373,-0.462,0.807,6.409,-10.376,21.606
0.374,-0.463,0.806,7.202,-11.414,20.996
0.377,-0.463,0.816,8.240,-12.695,20.874
0.380,-0.461,0.832,9.705,-13.367,21.057
0.381,-0.453,0.847,11.047,-13.489,21.179
0.384,-0.448,0.864,11.902,-13.062,21.240
0.382,-0.441,0.876,12.146,-11.902,21.118
0.380,-0.435,0.884,11.780,-10.742,20.386
0.384,-0.430,0.886,10.803,-9.155,19.287
0.381,-0.433,0.888,9.888,-7.263,18.494
0.384,-0.438,0.881,8.728,-5.249,16.724
0.386,-0.444,0.867,7.019,-3.601,15.381
0.390,-0.447,0.853,5.310,-3.052,14.404
0.390,-0.449,0.843,4.456,-2.625,14.160
0.385,-0.454,0.833,4.150,-2.319,14.160
0.383,-0.453,0.828,3.784,-2.441,13.977
0.382,-0.453,0.820,3.540,-2.991,13.489
0.383,-0.450,0.818,3.784,-3.235,13.428
0.384,-0.448,0.823,4.333,-3.418,13.245
0.386,-0.445,0.821,4.761,-3.418,12.817
0.385,-0.446,0.817,4.944,-2.991,12.085
0.383,-0.441,0.807,4.578,-2.197,11.536
0.380,-0.438,0.799,3.662,-1.770,11.414
0.378,-0.438,0.790,3.174,-1.709,10.742
0.377,-0.438,0.780,2.502,-1.770,10.010
0.374,-0.443,0.771,1.648,-2.258,9.399
0.375,-0.445,0.765,1.404,-2.686,8.667
0.375,-0.444,0.758,1.465,-3.174,8.484
0.374,-0.446,0.755,2.197,-3.845,8.240
0.374,-0.449,0.759,3.296,-5.188,7.874
0.371,-0.451,0.770,3.723,-6.714,7.935
0.370,-0.452,0.786,3.906,-7.935,7.385
0.375,-0.457,0.801,3.845,-7.996,6.836
0.374,-0.461,0.808,3.845,-7.568,6.409
0.375,-0.462,0.815,3.418,-7.263,6.042
0.377,-0.462,0.823,2.991,-7.751,6.042
0.377,-0.460,0.835,2.563,-8.118,6.165
0.377,-0.460,0.843,2.380,-7.385,6.042
0.378,-0.460,0.842,2.136,-6.042,5.188
0.378,-0.462,0.843,1.648,-5.188,4.700
0.380,-0.461,0.843,1.953,-4.883,4.272
0.383,-0.469,0.843,2.380,-4.395,3.540
0.383,-0.474,0.838,2.136,-3.296,3.174
0.387,-0.485,0.829,1.709,-2.808,2.930
0.385,-0.491,0.824,0.732,-3.357,3.479
0.386,-0.490,0.827,-0.305,-4.578,3.906
0.387,-0.481,0.828,-0.671,-5.127,4.333
0.385,-0.473,0.831,0.305,-5.127,4.883
0.380,-0.468,0.839,1.770,-4.456,5.005
0.378,-0.467,0.846,2.747,-3.784,4.517
0.379,-0.464,0.848,2.686,-3.052,3.906
0.386,-0.460,0.842,2.380,-2.136,3.540
0.384,-0.461,0.835,1.892,-1.831,3.540
0.379,-0.462,0.827,0.732,-1.465,3.418
0.376,-0.467,0.815,-0.793,-1.038,2.686
0.381,-0.470,0.800,-1.404,-0.854,2.014
0.385,-0.473,0.794,-0.916,-1.282,2.136
0.383,-0.471,0.797,0.366,-1.953,2.502
0.381,-0.470,0.803,1.648,-2.136,2.747
0.381,-0.463,0.810,2.502,-2.136,2.808
0.382,-0.458,0.813,2.869,-2.075,2.808
0.375,-0.453,0.816,2.502,-2.197,2.502
0.370,-0.451,0.823,1.770,-2.380,2.136
0.374,-0.456,0.826,0.610,-2.502,1.160
0.381,-0.456,0.817,-1.038,-1.831,0.427
0.381,-0.454,0.803,-2.014,-0.793,0.183
0.374,-0.454,0.792,-1.587,-0.427,0.244
0.372,-0.456,0.790,-0.671,-1.160,0.244
0.373,-0.465,0.798,0.244,-2.319,-0.427
0.374,-0.472,0.807,0.732,-2.808,-0.793
0.374,-0.475,0.818,1.160,-2.991,-0.793
0.369,-0.470,0.829,1.953,-2.930,-0.183
0.366,-0.471,0.832,2.258,-2.502,0.244
0.364,-0.462,0.827,0.854,-1.831,0.427
0.355,-0.451,0.826,-0.732,-1.587,0.549
0.353,-0.444,0.823,-1.648,-1.648,0.000
0.352,-0.448,0.820,-2.380,-1.709,-0.793
0.352,-0.455,0.812,-2.808,-1.587,-1.831
0.360,-0.461,0.799,-3.052,-1.099,-2.930
0.364,-0.469,0.786,-2.747,-0.793,-3.052
0.363,-0.474,0.778,-1.953,-1.160,-2.930
0.360,-0.476,0.778,-1.038,-2.075,-2.319
0.361,-0.480,0.785,-0.610,-3.357,-2.136
0.362,-0.483,0.797,-0.305,-4.395,-1.770
0.362,-0.480,0.812,0.122,-5.676,-1.282
0.363,-0.479,0.826,0.916,-5.493,-1.160
0.361,-0.480,0.834,1.343,-4.822,-0.977
0.358,-0.475,0.839,1.038,-4.700,-0.977
0.358,-0.468,0.843,0.427,-4.456,-1.038
0.355,-0.464,0.840,-0.122,-3.662,-1.099
