aX,aY,aZ,gX,gY,gZ
0.105,0.160,-1.318,7.324,-5.859,2.380
0.152,0.160,-1.171,15.869,-5.371,8.057
0.121,0.294,-1.122,23.132,-4.517,14.587
0.064,0.322,-1.142,16.663,-2.014,16.113
0.058,0.354,-1.147,11.963,-4.089,11.841
0.052,0.336,-1.131,7.446,-10.559,4.150
0.044,0.312,-1.112,1.587,-18.433,-2.930
0.063,0.264,-1.081,-4.578,-25.879,-8.728
0.113,0.158,-1.044,-9.155,-31.311,-12.878
0.106,0.160,-0.996,-12.085,-33.691,-10.925
0.052,0.261,-0.977,-13.855,-33.813,-7.141
-0.001,0.360,-0.945,-13.184,-34.607,-9.216
-0.027,0.408,-0.868,-10.925,-36.377,-19.714
-0.020,0.379,-0.786,-11.475,-36.987,-33.142
-0.017,0.285,-0.796,-16.479,-35.339,-44.189
0.051,0.151,-0.760,-27.771,-33.386,-49.622
0.094,0.162,-0.684,-37.354,-37.964,-46.936
0.080,0.236,-0.603,-50.293,-38.757,-39.307
-0.018,0.325,-0.675,-66.284,-34.241,-34.241
-0.117,0.428,-0.763,-74.768,-29.541,-39.001
-0.311,0.372,-0.876,-66.833,-26.794,-55.481
-0.272,0.479,-0.920,-42.725,-24.719,-78.613
-0.001,0.753,-0.678,-14.282,-20.691,-108.093
0.071,0.796,-0.418,2.930,-3.906,-150.146
-0.092,0.478,-0.467,-2.502,29.541,-193.237
-0.127,0.158,-0.604,-6.165,66.345,-218.140
-0.013,0.094,-0.822,11.780,98.267,-228.149
0.120,0.203,-0.979,30.212,122.131,-237.427
0.201,0.230,-1.090,28.259,138.123,-252.319
0.291,0.036,-1.286,13.977,148.743,-267.517
0.360,-0.223,-1.496,3.174,152.710,-274.841
0.417,-0.416,-1.590,-2.319,150.208,-271.912
0.427,-0.475,-1.569,-1.648,144.104,-265.015
0.347,-0.404,-1.587,-7.324,139.832,-261.475
0.285,-0.433,-1.733,-27.039,137.146,-266.296
0.293,-0.772,-1.983,-52.307,129.883,-278.931
0.500,-1.355,-2.239,-75.562,112.488,-289.307
0.838,-1.910,-2.339,-89.783,83.679,-286.011
1.131,-2.276,-2.246,-94.666,49.194,-262.817
1.332,-2.592,-2.135,-98.389,18.982,-224.121
1.500,-2.928,-1.980,-100.342,-4.395,-172.546
1.579,-3.152,-1.804,-93.567,-21.362,-107.544
1.502,-3.229,-1.570,-83.191,-28.931,-28.687
1.301,-3.164,-1.396,-74.158,-27.649,56.763
1.003,-2.980,-1.360,-77.209,-20.935,142.944
0.630,-2.746,-1.467,-92.957,-18.066,222.961
0.273,-2.553,-1.666,-109.619,-27.466,292.969
-0.059,-2.431,-1.863,-112.427,-48.889,355.957
-0.437,-2.251,-1.846,-96.741,-73.242,421.143
-0.886,-2.067,-1.687,-72.388,-88.684,487.000
-1.372,-1.796,-1.549,-46.936,-88.989,543.518
-1.894,-1.481,-1.405,-17.212,-80.505,579.407
-2.276,-1.344,-1.203,11.841,-74.036,582.214
-2.606,-1.254,-0.957,35.400,-66.895,566.101
-2.915,-1.229,-0.788,51.147,-55.115,552.856
-3.178,-1.168,-0.741,60.242,-39.063,556.396
-3.424,-0.932,-0.689,70.435,-22.034,573.669
-3.709,-0.471,-0.617,86.487,-5.554,588.623
-3.918,0.096,-0.523,110.962,11.414,581.360
-3.923,0.829,-0.335,147.827,31.128,544.312
-3.697,1.510,-0.025,191.284,57.068,479.309
-3.360,2.047,0.269,225.891,91.187,393.982
-2.990,2.448,0.492,239.075,125.610,296.936
-2.621,2.687,0.479,217.285,152.344,201.111
-2.296,2.598,0.203,152.710,160.950,107.605
-1.995,2.293,-0.383,54.016,144.592,19.470
-1.631,1.720,-0.954,-55.298,95.215,-64.758
-1.225,1.023,-1.350,-152.649,12.207,-134.949
-0.855,0.407,-1.477,-216.675,-78.552,-177.307
-0.554,-0.002,-1.269,-228.149,-158.752,-193.176
-0.364,-0.180,-0.887,-196.533,-208.191,-188.049
-0.305,-0.229,-0.600,-149.292,-218.384,-170.349
-0.169,-0.275,-0.312,-106.750,-199.341,-150.085
-0.077,-0.323,-0.213,-75.012,-155.334,-129.883
-0.028,-0.321,-0.253,-43.274,-99.915,-112.549
-0.024,-0.263,-0.344,-10.803,-51.758,-99.243
-0.015,-0.188,-0.454,9.033,-17.456,-87.158
0.007,-0.153,-0.574,15.198,1.648,-77.209
0.039,-0.140,-0.658,14.771,7.385,-70.435
0.086,-0.136,-0.681,13.550,3.357,-66.406
0.141,-0.134,-0.663,12.817,-4.089,-63.843
0.186,-0.129,-0.628,11.475,-10.132,-61.401
0.212,-0.134,-0.619,6.897,-13.184,-58.289
0.240,-0.137,-0.621,-0.122,-12.756,-54.565
0.282,-0.131,-0.645,-7.080,-9.705,-50.537
0.314,-0.166,-0.749,-13.916,-4.700,-46.509
0.351,-0.219,-0.887,-22.095,0.183,-40.344
0.393,-0.230,-1.012,-26.550,2.808,-31.860
0.382,-0.246,-1.106,-24.475,2.808,-21.118
0.348,-0.235,-1.145,-16.785,1.282,-9.399
0.304,-0.180,-1.130,-3.296,-0.427,0.916
0.255,-0.122,-1.080,10.559,0.366,9.399
0.209,-0.047,-1.019,22.339,4.089,15.808
0.144,0.020,-0.949,29.602,8.789,19.958
0.078,0.104,-0.892,29.480,12.451,22.339
0.019,0.177,-0.898,21.057,14.343,22.461
-0.041,0.203,-0.950,7.202,13.367,19.653
-0.093,0.207,-1.010,-3.723,8.362,15.076
-0.139,0.221,-1.061,-10.925,1.465,9.766
-0.163,0.221,-1.118,-14.465,-4.639,1.953
-0.138,0.198,-1.137,-11.169,-9.460,-8.545
-0.093,0.156,-1.104,-0.427,-12.085,-21.851
-0.043,0.129,-1.036,12.695,-11.108,-34.241
-0.019,0.075,-0.981,22.461,-7.202,-41.565
-0.017,0.000,-0.947,23.682,-3.235,-43.457
-0.029,-0.038,-0.959,18.188,-0.793,-40.039
-0.039,-0.022,-1.003,8.972,-0.549,-33.875
-0.028,0.019,-1.059,0.366,-2.441,-29.053
-0.008,0.036,-1.094,-2.563,-5.920,-30.029
0.004,0.030,-1.095,1.831,-10.010,-36.072
0.015,0.007,-1.080,10.620,-13.306,-43.762
0.037,-0.032,-1.035,21.667,-14.709,-49.194
0.062,-0.106,-0.986,33.936,-13.672,-50.720
0.121,-0.149,-0.892,44.739,-10.498,-46.204
0.149,-0.103,-0.775,50.537,-5.310,-35.339
0.114,-0.065,-0.712,47.424,1.221,-21.179
0.064,-0.008,-0.691,36.743,7.690,-6.714
0.026,0.078,-0.724,23.193,12.573,4.456
0.004,0.145,-0.817,10.315,15.442,8.301
-0.007,0.130,-0.935,0.549,15.869,3.357
0.050,0.095,-0.995,-0.305,13.550,-5.066
0.164,0.132,-0.973,7.629,9.766,-13.245
0.234,0.138,-0.931,13.916,6.042,-19.226
0.237,0.088,-0.896,12.451,1.343,-21.118
0.210,0.053,-0.848,6.897,-4.395,-18.005
0.176,0.033,-0.797,1.465,-9.583,-13.733
0.163,0.023,-0.769,-1.953,-11.047,-11.658
0.189,0.045,-0.768,-5.127,-7.629,-13.489
0.241,0.041,-0.834,-7.019,-1.221,-19.470
0.317,-0.012,-0.937,-6.226,5.615,-27.039
0.385,-0.085,-1.024,-1.648,10.437,-31.738
0.442,-0.138,-1.057,4.883,12.451,-31.250
0.458,-0.151,-1.025,11.536,11.841,-25.574
0.455,-0.100,-0.959,17.273,10.498,-17.456
0.460,0.027,-0.890,20.203,9.766,-9.094
0.453,0.108,-0.860,20.325,10.559,-3.967
0.431,0.091,-0.843,15.442,11.108,-1.038
0.384,0.108,-0.850,2.869,10.681,2.014
0.339,0.174,-0.892,-15.930,9.277,2.991
0.320,0.206,-0.956,-34.424,6.104,-1.587
0.333,0.145,-1.029,-48.889,1.648,-10.010
0.375,0.040,-1.096,-57.678,-2.808,-18.616
0.421,0.005,-1.107,-59.204,-6.714,-22.156
0.351,0.067,-0.974,-49.194,-7.935,-21.057
0.417,-0.033,-0.934,-25.208,-2.441,-18.250
0.554,-0.096,-0.962,-17.395,8.972,-10.315
0.562,-0.099,-0.975,-25.024,20.569,-0.610
0.507,-0.089,-0.993,-17.578,29.358,9.705
0.437,-0.030,-0.995,-12.085,35.828,19.226

0.110,0.197,-0.959,10.437,2.930,4.150
0.106,0.172,-0.846,17.517,8.789,0.671
0.096,0.126,-0.826,18.188,18.677,-0.488
0.101,0.099,-0.797,15.442,32.959,2.258
0.116,0.102,-0.828,17.883,50.720,5.981
0.154,0.119,-0.883,20.630,69.580,9.827
0.211,0.138,-0.913,22.522,85.388,12.634
0.311,0.234,-0.950,23.499,95.764,13.184
0.426,0.385,-0.997,20.203,102.051,9.766
0.560,0.626,-1.044,19.287,109.436,-0.122
0.715,0.691,-1.205,20.996,122.559,-20.447
0.989,0.623,-1.452,29.480,138.611,-49.438
1.271,0.525,-1.683,43.457,152.466,-74.768
1.523,0.367,-1.936,61.768,162.720,-93.872
1.679,0.070,-2.322,84.717,166.626,-107.605
1.679,-0.198,-2.678,110.840,155.518,-106.873
1.692,-0.310,-2.811,126.343,122.498,-84.045
1.799,-0.043,-2.788,110.657,76.538,-42.175
1.475,0.199,-2.717,44.495,27.100,-2.808
1.458,0.184,-2.421,-36.255,-27.649,17.822
1.244,0.246,-2.266,-90.820,-75.928,22.888
0.935,0.027,-2.162,-126.465,-115.479,24.780
0.706,-0.176,-2.007,-127.991,-145.447,35.095
0.481,-0.121,-1.650,-86.853,-159.790,51.697
0.199,0.068,-1.173,-29.724,-150.513,67.383
-0.162,0.267,-0.742,9.705,-118.103,75.867
-0.537,0.417,-0.553,21.606,-74.341,75.684
-0.752,0.465,-0.521,12.939,-40.100,63.660
-0.863,0.334,-0.504,-3.540,-25.330,42.297
-0.967,0.109,-0.509,-15.381,-24.597,21.973
-1.008,-0.018,-0.552,-13.000,-28.198,14.526
-1.075,-0.088,-0.557,-2.502,-29.175,22.522
-1.197,-0.056,-0.502,7.019,-23.437,41.016
-1.313,0.008,-0.415,11.047,-11.475,60.120
-1.434,0.080,-0.344,8.423,2.563,70.496
-1.451,0.187,-0.414,-2.930,14.709,70.557
-1.393,0.219,-0.542,-20.630,18.677,62.195
-1.308,0.189,-0.625,-33.386,12.878,50.842
-1.203,0.225,-0.595,-35.339,2.502,41.382
-1.117,0.249,-0.535,-34.607,-4.150,34.241
-1.054,0.263,-0.469,-37.231,-3.906,27.771
-1.004,0.326,-0.450,-40.039,1.038,22.034
-0.966,0.367,-0.479,-46.387,6.165,14.709
-0.926,0.358,-0.549,-57.251,7.080,5.249
-0.858,0.294,-0.618,-68.176,2.380,-6.287
-0.773,0.220,-0.666,-74.768,-5.066,-18.616
-0.676,0.127,-0.723,-80.322,-12.573,-28.870
-0.563,0.031,-0.779,-81.665,-19.775,-34.485
-0.454,-0.064,-0.801,-75.439,-25.635,-35.400
-0.391,-0.104,-0.770,-62.256,-29.236,-31.311
-0.367,-0.080,-0.704,-46.570,-29.541,-24.292
-0.363,-0.021,-0.642,-33.936,-26.672,-18.860
-0.332,0.042,-0.604,-24.353,-22.705,-19.287
-0.281,0.064,-0.599,-16.602,-19.165,-26.062
-0.198,0.039,-0.590,-12.146,-17.639,-36.499
-0.108,-0.008,-0.587,-8.911,-17.151,-46.204
-0.034,-0.076,-0.598,-7.080,-16.052,-51.636
0.017,-0.148,-0.624,-9.094,-13.916,-51.819
0.077,-0.201,-0.692,-11.414,-10.315,-47.424
0.157,-0.226,-0.778,-12.329,-6.775,-40.894
0.175,-0.184,-0.834,-11.658,-3.906,-33.264
0.156,-0.111,-0.894,-11.353,-2.258,-25.940
0.165,-0.065,-0.939,-11.963,-2.014,-21.057
0.178,-0.024,-0.952,-10.864,-2.319,-20.325
0.197,0.005,-0.966,-9.155,-2.075,-22.705
0.215,-0.011,-1.002,-7.996,-0.549,-26.428
0.224,-0.065,-1.036,-6.287,1.953,-27.954
0.237,-0.098,-1.075,-4.517,5.371,-25.696
0.248,-0.103,-1.111,-4.028,9.277,-20.569
0.255,-0.092,-1.135,-4.028,12.390,-14.832
0.245,-0.087,-1.156,-3.967,14.404,-9.583
0.213,-0.079,-1.178,-5.920,14.587,-5.615
0.179,-0.065,-1.192,-8.972,12.939,-2.380
0.143,-0.048,-1.187,-11.658,9.827,0.305
0.119,-0.028,-1.175,-14.343,6.958,1.587
0.096,-0.018,-1.182,-17.883,5.493,2.380
0.067,-0.025,-1.196,-20.996,4.700,2.319
0.052,-0.046,-1.211,-22.705,3.601,0.671
0.052,-0.064,-1.231,-23.254,2.075,-1.648
0.051,-0.086,-1.249,-21.240,-0.183,-3.845
0.055,-0.114,-1.237,-16.235,-3.113,-5.249
0.061,-0.119,-1.189,-7.446,-5.005,-5.432
0.056,-0.122,-1.142,1.099,-4.822,-4.883
0.042,-0.125,-1.117,4.944,-2.747,-2.808
0.028,-0.115,-1.109,6.775,-0.732,0.732
0.013,-0.090,-1.098,8.362,0.183,3.601
0.010,-0.066,-1.069,10.742,-0.122,4.517
0.007,-0.047,-1.044,13.062,-0.549,4.028
0.000,-0.049,-1.016,12.878,-1.160,3.174
-0.005,-0.046,-0.991,11.414,-2.136,2.563
-0.001,-0.047,-0.979,9.216,-2.747,2.930
0.005,-0.054,-0.972,6.836,-3.235,3.235
0.013,-0.056,-0.962,4.272,-3.723,3.967
0.020,-0.062,-0.957,1.831,-3.479,5.493
0.033,-0.067,-0.963,-0.916,-3.052,6.653
0.041,-0.065,-0.975,-3.113,-2.625,7.507
0.041,-0.059,-0.982,-4.028,-2.808,8.301
0.035,-0.047,-0.983,-3.967,-3.296,9.033
0.032,-0.039,-0.983,-3.540,-3.662,9.460
0.020,-0.024,-0.976,-2.258,-3.662,9.460
0.010,-0.004,-0.975,-1.709,-2.869,8.789
0.011,0.001,-0.990,-2.136,-1.770,7.141
0.014,0.000,-0.989,-1.526,-1.160,4.517
0.021,-0.013,-0.986,-1.587,-0.793,1.709
0.032,-0.025,-0.995,-2.441,-0.549,0.183
0.035,-0.029,-1.010,-3.235,-0.305,-0.244
0.032,-0.040,-1.032,-4.822,-0.610,0.732
0.029,-0.036,-1.041,-5.188,-1.526,2.502
0.020,-0.017,-1.032,-4.639,-2.625,3.662
0.012,-0.000,-1.035,-5.371,-3.357,4.211
0.017,-0.000,-1.023,-6.042,-3.723,4.578
0.020,0.018,-1.018,-4.028,-3.845,4.333
0.016,0.022,-1.019,-3.845,-3.357,3.662
0.011,0.012,-1.027,-4.761,-2.869,2.441
0.016,0.010,-1.031,-4.211,-2.747,0.061
0.025,-0.001,-1.034,-2.991,-2.563,-2.686
0.035,-0.022,-1.030,-1.282,-2.502,-4.517
0.043,-0.034,-1.014,0.732,-2.441,-4.883
0.053,-0.040,-1.008,1.221,-2.319,-4.639
0.059,-0.042,-1.007,1.160,-2.441,-3.418
0.054,-0.031,-1.008,0.977,-2.441,-1.770
0.045,-0.028,-1.011,-0.671,-2.625,-0.061
0.049,-0.028,-1.009,-1.770,-2.869,0.732
0.056,-0.032,-1.006,-2.014,-3.052,0.488
0.054,-0.033,-0.999,-1.709,-2.747,0.183
0.057,-0.026,-0.996,-1.770,-1.892,0.183
0.061,-0.017,-1.000,-2.441,-1.099,0.305
0.061,-0.015,-1.007,-2.869,-0.793,0.549
0.059,-0.013,-1.017,-3.174,-0.977,0.610
0.055,-0.024,-1.021,-3.662,-1.770,0.610
0.048,-0.030,-1.016,-3.723,-2.625,0.793
0.046,-0.019,-1.013,-3.235,-3.113,1.282
0.045,-0.009,-1.004,-3.479,-2.991,1.709
0.038,-0.000,-1.001,-2.808,-2.747,2.441
0.027,0.000,-0.997,-2.625,-2.014,2.258
0.017,-0.000,-0.989,-2.136,-1.404,1.587
0.019,0.002,-0.993,-2.136,-0.793,0.366
0.028,-0.004,-1.009,-1.892,-0.366,-1.099
0.026,-0.016,-1.020,-1.465,-0.610,-2.075
0.026,-0.020,-1.023,-1.221,-1.038,-2.380
0.035,-0.019,-1.030,-0.488,-1.404,-2.686
0.040,-0.022,-1.036,0.488,-1.953,-2.502
0.046,-0.023,-1.037,2.136,-2.258,-1.953
0.050,-0.020,-1.025,4.333,-2.258,-1.160
0.052,-0.014,-1.013,6.531,-1.892,-0.488
0.047,-0.018,-1.004,7.751,-1.282,-0.366
0.042,-0.022,-1.000,8.301,-0.793,-0.610
0.049,-0.016,-1.003,8.179,-0.793,-0.671
0.061,-0.009,-1.012,7.385,-1.282,-0.916

0.506,-0.670,-1.119,3.235,20.386,-61.707
0.471,-0.667,-1.236,-2.258,23.926,-51.758
0.459,-0.537,-1.361,2.991,19.348,-43.152
0.511,-0.756,-1.301,17.273,13.428,-41.687
0.649,-0.941,-1.102,39.185,12.878,-41.504
0.711,-1.193,-0.920,50.476,21.118,-33.936
0.824,-1.448,-0.914,43.335,33.325,-20.325
0.937,-1.792,-1.036,26.428,38.025,-5.798
1.071,-2.088,-1.072,12.573,28.137,11.353
1.120,-2.339,-0.994,4.700,12.390,36.804
1.152,-2.564,-0.968,3.235,5.432,70.007
1.284,-2.866,-0.973,13.062,7.690,106.140
1.410,-3.167,-0.852,43.152,10.132,146.362
1.314,-3.335,-0.613,78.064,11.108,201.172
0.992,-3.160,-0.439,100.281,13.367,271.484
0.655,-2.679,-0.490,103.760,19.104,343.384
0.348,-2.357,-0.713,81.177,18.372,403.809
0.134,-2.061,-0.929,64.758,9.155,453.125
-0.256,-1.659,-0.980,59.448,-6.592,489.746
-0.690,-1.301,-0.948,53.406,-18.921,512.512
-0.974,-0.928,-1.021,49.072,-21.667,520.630
-1.116,-0.608,-1.167,35.034,-14.526,515.259
-1.362,-0.452,-1.366,22.644,-3.052,502.930
-1.695,-0.235,-1.326,41.077,5.371,494.446
-2.069,0.436,-0.904,98.022,12.878,489.319
-2.360,1.161,-0.427,145.081,30.701,469.788
-2.440,1.434,-0.242,144.592,62.622,424.194
-2.432,1.574,-0.222,127.930,95.032,359.802
-2.420,1.797,-0.273,113.892,115.967,290.283
-2.345,1.909,-0.382,84.412,120.361,222.839
-2.230,1.880,-0.519,44.617,106.873,160.522
-2.043,1.809,-0.598,7.507,78.979,104.553
-1.804,1.625,-0.712,-34.241,45.349,49.133
-1.607,1.378,-0.763,-63.293,10.620,-3.113
-1.337,1.112,-0.814,-78.979,-19.348,-49.011
-1.045,0.791,-0.871,-87.463,-42.786,-88.135
-0.759,0.498,-0.863,-83.191,-59.082,-116.638
-0.520,0.207,-0.819,-78.064,-67.078,-132.874
-0.230,0.068,-0.775,-72.083,-65.796,-137.939
0.040,-0.051,-0.759,-63.416,-57.007,-136.536
0.205,-0.221,-0.804,-57.190,-43.518,-131.958
0.324,-0.339,-0.862,-47.791,-29.907,-121.460
0.420,-0.365,-0.911,-35.217,-18.188,-105.469
0.468,-0.356,-0.949,-23.743,-9.460,-89.050
0.459,-0.325,-0.990,-14.282,-3.967,-74.829
0.451,-0.298,-0.991,-5.127,-1.587,-62.805
0.425,-0.259,-0.973,2.319,-0.549,-53.162
0.397,-0.192,-0.957,7.629,1.465,-44.922
0.375,-0.135,-0.934,9.521,3.052,-38.757
0.353,-0.108,-0.909,8.423,4.578,-34.668
0.351,-0.087,-0.896,6.165,6.165,-29.846
0.344,-0.063,-0.919,1.953,8.728,-23.132
0.324,-0.034,-0.965,-2.991,11.597,-14.160
0.302,-0.005,-1.021,-5.005,13.489,-5.432
0.277,0.029,-1.064,-3.906,13.733,1.343
0.255,0.065,-1.072,-0.671,13.062,4.883
0.238,0.060,-1.078,3.296,11.841,4.700
0.228,0.052,-1.068,6.287,10.010,3.296
0.209,0.059,-1.024,8.118,7.629,3.967
0.184,0.077,-1.002,6.958,6.348,7.019
0.162,0.106,-1.012,2.441,6.287,11.414
0.139,0.142,-1.046,-2.869,6.592,14.465
0.108,0.176,-1.077,-6.714,5.493,15.198
0.093,0.203,-1.091,-8.179,3.113,12.817
0.081,0.209,-1.081,-8.179,0.061,8.118
0.066,0.205,-1.056,-8.667,-2.136,1.953
0.068,0.185,-1.062,-10.193,-3.418,-4.395
0.083,0.145,-1.063,-11.292,-4.944,-10.010
0.109,0.100,-1.040,-11.047,-5.493,-14.221
0.130,0.059,-1.036,-10.315,-3.906,-16.785
0.148,0.024,-1.045,-9.766,-0.793,-17.578
0.166,0.004,-1.055,-9.155,1.953,-17.212
0.183,-0.002,-1.072,-9.216,3.296,-15.991
0.192,-0.013,-1.094,-9.216,2.808,-13.977
0.200,-0.016,-1.115,-9.460,0.366,-11.169
0.200,-0.013,-1.116,-7.141,-3.296,-8.179
0.192,-0.002,-1.082,-2.502,-6.897,-5.371
0.177,0.019,-1.040,2.747,-8.728,-2.502
0.163,0.030,-0.987,6.653,-8.057,0.549
0.149,0.047,-0.945,8.789,-5.798,3.052
0.135,0.071,-0.928,8.057,-2.625,4.456
0.124,0.091,-0.942,5.371,0.305,5.005
0.116,0.101,-0.959,2.380,1.648,4.944
0.118,0.111,-0.978,0.732,1.221,4.395
0.115,0.124,-0.995,-0.854,0.000,3.784
0.112,0.121,-1.011,-1.343,-1.709,3.723
0.116,0.130,-1.019,-0.244,-3.723,3.418
0.122,0.129,-1.010,2.686,-5.310,2.258
0.124,0.123,-0.975,5.676,-5.859,0.610
0.127,0.115,-0.934,6.897,-5.432,-1.953
0.139,0.099,-0.925,4.272,-3.418,-4.395
0.154,0.082,-0.945,0.610,-1.404,-5.859
0.167,0.077,-0.972,-2.747,-0.305,-6.592
0.177,0.063,-0.999,-5.066,-0.549,-6.226
0.192,0.047,-1.010,-6.409,-2.258,-5.127
0.195,0.055,-0.996,-6.226,-4.517,-3.235
0.182,0.065,-0.981,-6.104,-6.226,-0.244
0.172,0.072,-0.978,-6.714,-7.263,2.441
0.160,0.071,-0.962,-6.165,-7.446,4.272
0.145,0.085,-0.934,-4.578,-6.653,4.395
0.153,0.094,-0.938,-3.906,-3.967,2.930
0.159,0.091,-0.969,-4.333,-0.183,1.343
0.162,0.084,-1.000,-3.479,2.625,0.732
0.162,0.092,-1.013,-1.709,3.235,0.854
0.157,0.096,-1.016,0.000,2.563,0.916
0.151,0.088,-1.016,0.671,1.221,0.244
0.152,0.085,-1.007,1.465,-0.183,-1.038
0.159,0.080,-0.995,2.380,-1.404,-2.075
0.164,0.076,-0.987,3.662,-2.258,-2.136
0.164,0.071,-0.974,4.456,-2.563,-1.099
0.164,0.074,-0.966,4.211,-2.441,0.793
0.157,0.082,-0.969,3.174,-1.953,2.380
0.148,0.086,-0.969,2.136,-1.770,2.808
0.142,0.098,-0.973,1.526,-1.343,2.869
0.147,0.111,-0.969,0.977,-1.038,2.319
0.152,0.131,-0.963,1.465,-0.488,1.404
0.147,0.136,-0.971,1.282,0.427,-0.122
0.148,0.129,-0.992,0.061,1.099,-1.465
0.153,0.116,-1.004,-0.671,1.038,-3.296
0.160,0.102,-1.020,-0.183,0.244,-4.456
0.171,0.084,-1.027,0.854,-0.549,-4.822
0.182,0.077,-1.017,1.953,-1.038,-4.639
0.187,0.070,-1.006,3.174,-1.282,-3.967
0.189,0.066,-0.996,3.174,-1.343,-3.052
0.187,0.068,-0.990,2.197,-1.282,-2.014
0.185,0.069,-0.985,1.648,-1.282,-1.038
0.188,0.067,-0.976,0.610,-1.160,-0.244
0.190,0.061,-0.973,-0.244,-0.671,0.671
0.192,0.061,-0.977,-1.160,0.061,1.648
0.188,0.062,-0.985,-1.648,0.854,3.235
0.177,0.071,-0.985,-2.075,1.099,4.822
0.161,0.090,-0.987,-1.282,1.343,6.287
0.154,0.100,-0.998,-1.160,1.648,6.775
0.147,0.104,-1.009,-0.549,1.404,6.470
0.137,0.106,-1.014,0.366,0.427,5.920
0.131,0.105,-1.006,1.587,-0.427,5.188
0.138,0.107,-0.999,2.075,-0.732,5.127
0.143,0.113,-1.000,1.648,-0.305,4.395
0.141,0.117,-1.004,1.160,0.244,3.601
0.142,0.120,-1.008,1.038,-0.122,2.502
0.147,0.119,-1.007,1.770,-0.793,0.610
0.153,0.108,-0.993,2.930,-1.648,-1.892
0.167,0.094,-0.976,4.822,-2.075,-3.662
0.179,0.081,-0.967,5.554,-1.831,-4.578
0.183,0.072,-0.969,5.188,-1.038,-4.150
0.182,0.065,-0.967,4.517,-0.427,-2.258
0.175,0.071,-0.962,3.784,0.183,-0.122
0.169,0.084,-0.970,2.258,1.221,1.648
0.159,0.096,-0.990,0.671,2.014,3.052

0.843,0.184,-1.597,43.335,10.620,-0.854
1.087,0.304,-1.093,52.185,12.634,-5.188
1.126,0.416,-1.024,37.292,28.320,-2.563
1.227,0.361,-1.292,-0.793,45.593,1.404
1.389,0.257,-1.707,-16.907,58.167,-4.700
1.560,0.147,-1.926,-4.456,60.547,-16.235
1.699,0.063,-2.027,14.160,55.115,-22.705
1.753,0.120,-2.108,27.710,46.692,-23.071
1.698,0.263,-2.146,36.133,34.851,-24.353
1.598,0.338,-2.123,38.757,19.287,-33.081
1.526,0.428,-2.031,38.147,2.380,-46.021
1.391,0.558,-1.920,34.424,-10.986,-60.181
1.289,0.571,-1.828,34.912,-19.104,-80.383
1.291,0.434,-1.765,40.710,-22.644,-103.943
1.326,0.301,-1.691,39.917,-27.039,-117.859
1.216,0.130,-1.655,30.518,-36.987,-116.516
1.089,-0.010,-1.542,20.142,-49.622,-105.469
0.867,0.011,-1.332,12.512,-63.171,-88.989
0.730,-0.070,-1.031,-13.916,-70.129,-73.547
0.578,-0.219,-0.839,-59.387,-68.054,-62.012
0.335,-0.380,-0.746,-104.309,-61.890,-52.124
0.119,-0.477,-0.653,-130.981,-62.134,-41.260
-0.193,-0.620,-0.522,-143.921,-62.561,-27.222
-0.516,-0.723,-0.391,-143.311,-54.810,-8.057
-0.806,-0.845,-0.344,-138.428,-36.377,15.747
-1.089,-1.003,-0.449,-131.165,-11.841,45.471
-1.429,-1.088,-0.526,-115.662,10.010,82.581
-1.760,-1.049,-0.566,-93.567,25.940,124.573
-2.098,-1.046,-0.536,-76.233,36.194,166.016
-2.474,-0.958,-0.487,-68.115,45.715,205.811
-2.680,-0.673,-0.578,-74.768,61.035,243.164
-2.674,-0.240,-0.859,-93.384,80.994,269.958
-2.526,0.265,-1.237,-105.164,97.900,277.405
-2.223,0.839,-1.538,-88.806,104.797,263.000
-1.869,1.429,-1.490,-30.701,100.037,228.882
-1.563,1.937,-1.157,47.791,93.689,180.359
-1.302,2.238,-0.993,95.154,96.252,123.901
-1.094,2.044,-1.236,88.867,100.586,62.988
-0.960,1.522,-1.500,70.862,87.158,1.648
-0.795,0.823,-1.500,67.078,51.086,-57.556
-0.641,0.082,-1.210,75.073,6.042,-110.718
-0.500,-0.506,-0.821,89.600,-31.616,-148.193
-0.322,-0.915,-0.435,97.534,-53.528,-164.124
-0.128,-1.164,-0.160,89.172,-57.739,-158.936
0.049,-1.250,-0.049,64.392,-49.500,-136.230
0.165,-1.163,-0.085,31.189,-38.086,-102.051
0.210,-0.998,-0.213,-2.563,-30.273,-63.171
0.201,-0.773,-0.347,-28.809,-27.283,-25.818
0.143,-0.535,-0.431,-42.725,-26.611,3.357
0.038,-0.340,-0.484,-50.171,-24.170,23.315
-0.080,-0.164,-0.548,-54.993,-19.104,33.997
-0.170,-0.047,-0.656,-56.396,-11.963,34.302
-0.191,-0.017,-0.757,-51.086,-5.615,25.269
-0.133,-0.068,-0.829,-38.696,-0.244,9.338
-0.043,-0.150,-0.885,-23.560,4.272,-6.958
0.051,-0.236,-0.926,-12.695,8.545,-16.907
0.152,-0.270,-0.968,-6.836,11.536,-16.907
0.207,-0.250,-0.970,-3.479,11.902,-9.216
0.189,-0.214,-0.947,-3.052,10.681,2.625
0.131,-0.169,-0.941,-8.179,9.216,16.479
0.048,-0.096,-0.950,-17.883,7.446,28.198
-0.050,-0.015,-0.975,-29.663,4.761,35.217
-0.127,0.070,-1.017,-41.504,1.587,34.607
-0.182,0.109,-1.070,-49.072,-2.563,26.001
-0.184,0.092,-1.110,-49.683,-6.653,12.146
-0.136,0.033,-1.122,-43.274,-9.338,-2.563
-0.077,-0.047,-1.096,-32.410,-8.972,-14.526
-0.025,-0.128,-1.092,-22.461,-5.432,-21.118
0.016,-0.203,-1.090,-15.564,-0.366,-21.851
0.050,-0.243,-1.098,-9.949,4.578,-18.555
0.067,-0.262,-1.115,-6.897,8.118,-13.245
0.068,-0.257,-1.130,-5.737,9.399,-7.202
0.053,-0.228,-1.134,-6.531,8.423,-1.648
0.026,-0.176,-1.138,-7.996,5.615,4.456
0.004,-0.135,-1.138,-9.705,2.014,8.911
-0.018,-0.093,-1.105,-8.911,-1.038,11.414
-0.039,-0.062,-1.067,-6.226,-2.136,10.986
-0.051,-0.051,-1.046,-5.005,-1.343,8.118
-0.047,-0.046,-1.050,-4.456,-0.122,4.761
-0.040,-0.069,-1.060,-4.517,0.366,1.465
-0.029,-0.100,-1.056,-4.211,-0.305,-1.404
-0.017,-0.111,-1.056,-3.540,-1.099,-2.930
-0.005,-0.136,-1.069,-3.296,-1.465,-3.357
0.009,-0.157,-1.074,-1.892,-1.648,-3.113
0.018,-0.170,-1.060,2.380,-1.953,-1.648
0.014,-0.168,-1.047,5.920,-1.648,0.305
-0.002,-0.168,-1.044,6.958,-1.160,3.113
-0.021,-0.145,-1.022,8.179,-0.916,6.104
-0.032,-0.117,-1.002,9.033,-0.427,7.935
-0.039,-0.101,-0.993,7.385,0.549,7.080
-0.037,-0.085,-0.988,5.859,1.282,5.737
-0.027,-0.073,-0.989,2.686,1.282,3.662
-0.018,-0.075,-1.005,-1.160,0.427,1.465
-0.005,-0.084,-1.016,-3.418,-1.038,0.305
-0.003,-0.096,-1.025,-4.089,-2.808,-0.183
-0.009,-0.102,-1.031,-3.113,-4.028,-0.366
-0.016,-0.104,-1.035,-0.793,-4.944,-0.366
-0.015,-0.109,-1.028,2.625,-5.310,-1.526
-0.011,-0.107,-1.001,6.592,-5.005,-2.930
-0.006,-0.110,-0.979,8.240,-3.662,-4.150
0.003,-0.111,-0.982,6.348,-1.709,-4.639
0.007,-0.115,-1.008,2.441,-0.488,-4.211
0.009,-0.122,-1.039,-1.526,-1.099,-2.991
0.001,-0.129,-1.044,-2.441,-3.235,-1.892
-0.003,-0.121,-1.035,-1.587,-5.676,-0.732
-0.008,-0.122,-1.022,-0.305,-7.141,0.427
-0.012,-0.127,-1.004,1.465,-7.568,0.610
-0.019,-0.121,-0.977,4.456,-6.836,0.793
-0.026,-0.106,-0.957,6.714,-5.005,0.793
-0.035,-0.092,-0.935,7.385,-2.380,0.549
-0.040,-0.074,-0.948,6.226,0.671,-0.244
-0.036,-0.071,-0.991,3.052,2.441,-1.587
-0.027,-0.083,-1.028,-0.793,1.587,-3.296
-0.021,-0.105,-1.034,-1.465,-1.404,-4.578
-0.007,-0.120,-1.024,-0.488,-4.150,-5.127
0.016,-0.131,-1.004,0.854,-5.188,-5.249
0.029,-0.124,-0.992,3.296,-4.517,-5.188
0.022,-0.138,-1.005,3.906,-2.380,-4.883
0.021,-0.149,-1.013,3.784,-0.671,-3.662
0.019,-0.132,-1.008,5.493,0.061,-2.136
0.015,-0.124,-1.008,4.761,0.244,-1.770
0.007,-0.131,-1.008,2.869,-0.122,-1.587
0.009,-0.127,-1.013,1.282,-0.549,-1.526
0.012,-0.130,-1.009,0.122,-0.916,-1.526
0.017,-0.124,-0.991,0.000,-1.160,-1.099
0.020,-0.119,-0.990,-0.244,-0.549,-0.671
0.014,-0.130,-1.006,-2.869,0.305,-0.061
0.006,-0.127,-1.025,-4.761,0.366,1.160
0.002,-0.114,-1.044,-5.432,-0.427,1.526
-0.000,-0.113,-1.054,-5.676,-1.648,1.404
0.001,-0.112,-1.053,-3.967,-2.747,1.221
0.004,-0.125,-1.047,-1.953,-3.357,0.916
0.008,-0.146,-1.044,0.732,-2.991,0.854
0.006,-0.145,-1.037,3.906,-2.136,1.892
0.002,-0.123,-1.027,6.287,-1.221,3.479
-0.001,-0.105,-1.018,6.958,-0.671,4.578
0.001,-0.071,-1.017,6.775,-0.671,5.432
-0.006,-0.047,-1.024,4.761,-0.916,5.005
-0.017,-0.048,-1.047,1.831,-1.770,4.089
-0.014,-0.057,-1.052,1.282,-3.235,2.319
-0.006,-0.070,-1.028,3.967,-4.272,-0.427
0.005,-0.095,-0.997,7.385,-4.028,-2.930
0.025,-0.096,-0.957,9.766,-2.625,-4.578
0.037,-0.106,-0.949,9.033,-0.854,-5.188
0.042,-0.132,-0.974,4.272,-0.122,-5.127
0.043,-0.141,-0.997,-0.732,-1.465,-4.211
0.035,-0.145,-1.013,-5.188,-4.272,-2.747
0.030,-0.138,-1.014,-8.179,-7.080,-0.488
0.029,-0.116,-1.005,-8.911,-9.033,1.648

0.077,-0.011,-0.926,34.058,5.432,-21.606
0.123,-0.061,-0.839,27.588,7.385,-9.888
0.177,0.152,-0.816,12.878,11.841,6.714
0.069,0.284,-0.822,-5.188,19.409,14.954
0.050,0.374,-0.905,-21.790,26.245,9.094
0.065,0.322,-1.000,-31.555,30.884,-6.714
0.166,0.170,-1.043,-36.072,32.043,-22.583
0.278,0.125,-1.010,-37.659,32.471,-30.579
0.320,0.250,-1.031,-39.856,37.659,-30.823
0.276,0.397,-1.112,-40.161,47.607,-35.889
0.317,0.417,-1.253,-36.194,60.303,-52.185
0.466,0.469,-1.420,-29.541,72.449,-74.402
0.606,0.503,-1.536,-25.146,79.895,-97.717
0.651,0.439,-1.600,-21.423,80.505,-122.681
0.666,0.270,-1.675,-12.695,74.524,-144.897
0.861,0.140,-1.747,2.441,65.308,-157.532
1.033,0.114,-1.867,13.000,55.664,-158.020
1.043,0.099,-1.987,-4.883,41.321,-152.649
0.956,0.151,-2.031,-46.936,29.236,-148.804
0.869,-0.088,-2.222,-96.985,15.564,-158.325
0.874,-0.099,-2.370,-112.000,-7.874,-180.847
0.865,-0.164,-2.336,-103.516,-39.307,-215.515
1.110,-0.147,-2.085,-85.449,-66.956,-258.667
1.217,-0.423,-1.849,-62.622,-79.468,-303.528
1.346,-1.003,-1.850,-55.298,-69.153,-325.989
1.598,-1.196,-1.493,-29.419,-60.852,-299.622
1.515,-1.316,-1.160,-14.343,-31.067,-246.399
1.274,-1.275,-1.071,-16.846,9.338,-175.354
1.011,-1.266,-1.103,-37.109,38.208,-102.844
0.756,-1.403,-1.235,-68.787,45.227,-38.330
0.463,-1.657,-1.366,-96.375,30.823,21.790
0.058,-1.792,-1.338,-102.722,2.319,92.773
-0.454,-1.761,-1.151,-102.417,-28.992,178.650
-1.049,-1.594,-0.961,-109.863,-51.392,270.447
-1.673,-1.328,-0.692,-122.437,-57.983,355.103
-2.271,-1.011,-0.539,-141.785,-45.654,420.349
-2.818,-0.727,-0.552,-166.809,-19.592,460.632
-3.245,-0.485,-0.627,-184.937,8.118,472.229
-3.517,-0.238,-0.744,-179.749,35.339,458.130
-3.632,0.097,-1.027,-140.259,61.707,425.049
-3.260,0.770,-0.799,-45.044,78.857,374.573
-2.876,1.366,-0.552,56.702,95.520,310.059
-2.468,1.827,-0.239,123.535,117.493,245.728
-2.049,2.085,-0.155,152.100,142.029,185.608
-1.669,2.158,-0.433,132.629,156.433,132.080
-1.318,2.061,-0.966,84.290,144.409,83.618
-1.120,1.705,-1.458,32.532,99.915,35.767
-1.028,1.150,-1.541,9.399,30.762,-9.460
-0.983,0.531,-1.232,18.066,-37.842,-53.589
-0.890,-0.051,-0.713,39.429,-87.524,-96.130
-0.749,-0.468,-0.223,55.237,-109.436,-129.395
-0.545,-0.765,0.046,52.734,-105.591,-147.888
-0.284,-0.965,0.095,38.696,-88.196,-151.001
-0.061,-1.041,-0.006,26.489,-68.420,-140.137
0.123,-0.989,-0.150,17.578,-52.795,-116.882
0.245,-0.823,-0.289,9.460,-43.213,-85.449
0.290,-0.626,-0.384,0.916,-39.124,-51.819
0.270,-0.400,-0.418,-5.066,-38.330,-20.996
0.201,-0.206,-0.462,-10.803,-36.438,1.343
0.070,-0.162,-0.548,-17.944,-32.104,12.634
-0.044,-0.189,-0.541,-19.592,-26.794,12.207
-0.077,-0.253,-0.521,-12.878,-18.738,1.282
0.016,-0.300,-0.632,-9.094,-5.676,-14.282
0.134,-0.359,-0.786,-11.047,6.531,-27.649
0.251,-0.432,-0.934,-13.855,13.000,-31.799
0.339,-0.447,-1.036,-15.442,12.634,-22.217
0.339,-0.397,-1.073,-17.761,8.240,-2.869
0.257,-0.328,-1.102,-23.499,4.272,20.691
0.151,-0.222,-1.117,-30.090,2.563,41.565
0.037,-0.092,-1.116,-31.006,3.174,53.345
-0.068,-0.002,-1.116,-30.579,5.798,53.650
-0.133,0.075,-1.142,-29.724,9.216,46.143
-0.149,0.113,-1.192,-29.358,11.414,33.325
-0.147,0.101,-1.243,-27.283,11.047,17.944
-0.133,0.076,-1.271,-22.705,8.301,2.502
-0.108,-0.009,-1.275,-18.005,3.784,-11.047
-0.063,-0.101,-1.250,-11.719,-0.366,-22.034
-0.018,-0.171,-1.225,-4.883,-2.930,-28.809
0.014,-0.235,-1.201,-0.549,-4.028,-30.579
0.039,-0.280,-1.153,3.540,-4.578,-28.076
0.050,-0.290,-1.096,7.324,-3.906,-22.827
0.047,-0.276,-1.043,9.521,-1.648,-15.686
0.032,-0.251,-1.013,10.132,1.343,-8.484
0.013,-0.202,-0.992,9.644,3.784,-3.174
-0.019,-0.144,-0.975,8.911,4.822,0.427
-0.037,-0.102,-0.984,6.653,4.700,1.343
-0.048,-0.094,-1.002,4.456,2.930,-0.854
-0.051,-0.121,-0.999,3.418,0.122,-4.639
-0.038,-0.138,-0.977,3.967,-1.831,-7.751
-0.028,-0.158,-0.959,4.944,-1.770,-10.498
-0.013,-0.200,-0.950,4.700,0.122,-11.780
0.013,-0.217,-0.932,6.592,3.296,-11.169
0.036,-0.213,-0.921,8.789,7.080,-9.277
0.035,-0.218,-0.930,7.446,10.498,-6.287
0.023,-0.207,-0.951,3.906,11.536,-2.686
0.010,-0.180,-0.995,-1.648,10.010,1.282
0.002,-0.157,-1.030,-7.568,5.676,3.906
-0.009,-0.144,-1.037,-10.925,0.183,4.456
-0.011,-0.144,-1.035,-12.390,-4.211,3.540
-0.005,-0.138,-1.043,-13.123,-6.042,2.625
-0.004,-0.141,-1.045,-12.817,-6.165,1.465
-0.003,-0.148,-1.049,-10.376,-5.188,0.000
0.000,-0.141,-1.038,-5.432,-3.235,-1.465
-0.005,-0.130,-1.038,-0.305,-0.732,-2.075
0.000,-0.133,-1.053,1.526,1.526,-2.441
-0.004,-0.126,-1.074,2.502,1.831,-2.136
-0.013,-0.129,-1.089,2.441,0.305,-2.136
-0.014,-0.146,-1.080,2.197,-2.075,-2.869
-0.010,-0.156,-1.057,3.113,-3.906,-4.272
0.003,-0.162,-1.029,3.662,-4.211,-5.066
0.012,-0.170,-1.013,3.601,-3.174,-4.944
0.010,-0.162,-1.020,2.502,-1.587,-2.808
0.005,-0.142,-1.036,0.610,-0.793,0.000
-0.000,-0.129,-1.045,-0.488,-1.160,1.465
-0.009,-0.122,-1.046,-0.610,-2.502,1.160
-0.019,-0.125,-1.037,-0.366,-3.845,-0.305
-0.019,-0.139,-1.029,0.183,-4.883,-1.953
-0.011,-0.161,-1.020,1.282,-5.005,-3.662
-0.001,-0.176,-1.011,2.136,-4.333,-4.761
0.013,-0.181,-1.002,3.174,-3.479,-5.005
0.018,-0.185,-0.997,3.662,-2.319,-4.761
0.016,-0.186,-1.008,2.136,-0.977,-3.540
0.015,-0.175,-1.031,-0.061,-0.305,-0.793
0.012,-0.168,-1.050,-1.404,-0.671,1.343
0.005,-0.158,-1.054,-0.305,-1.770,2.563
-0.007,-0.140,-1.045,1.648,-3.235,3.235
-0.017,-0.124,-1.033,2.686,-4.333,2.869
-0.030,-0.114,-1.010,3.540,-4.883,1.404
-0.036,-0.104,-0.990,4.456,-5.005,-0.366
-0.034,-0.114,-0.972,4.761,-4.700,-2.625
-0.018,-0.130,-0.961,5.005,-3.662,-4.883
-0.000,-0.152,-0.965,4.761,-2.136,-6.287
0.024,-0.169,-0.967,3.845,-1.160,-6.836
0.037,-0.171,-0.968,3.357,-0.732,-5.981
0.035,-0.170,-0.973,2.197,-0.793,-3.967
0.026,-0.160,-0.978,-0.122,-1.221,-0.732
0.007,-0.144,-0.987,-2.563,-1.770,1.892
-0.007,-0.129,-0.980,-3.662,-2.563,3.052
-0.013,-0.122,-0.965,-2.747,-2.747,2.197
-0.015,-0.123,-0.965,-1.465,-1.953,0.244
-0.011,-0.133,-0.977,-0.854,-0.610,-1.465
-0.004,-0.131,-0.996,-0.244,0.366,-2.502
0.003,-0.137,-1.011,0.488,0.549,-3.052
0.013,-0.144,-1.008,2.502,0.305,-3.052
0.021,-0.139,-0.983,4.761,0.488,-2.625
0.023,-0.138,-0.967,5.737,1.587,-1.892
0.016,-0.141,-0.966,4.822,3.113,-0.732
0.009,-0.141,-0.981,1.831,3.357,0.244
0.003,-0.137,-1.004,-1.953,2.014,0.916

0.376,-0.949,-0.290,22.461,12.085,42.786
0.412,-0.723,-0.204,24.353,19.104,46.692
0.409,-0.603,-0.281,16.113,21.240,38.696
0.589,-0.591,-0.414,6.714,18.005,20.630
0.912,-0.668,-0.457,9.399,7.874,-1.953
1.277,-0.852,-0.477,19.897,-1.892,-20.264
1.601,-1.067,-0.509,37.659,-5.859,-30.029
1.791,-1.159,-0.569,64.087,-5.859,-30.273
1.882,-1.255,-0.671,88.806,-7.935,-27.161
2.019,-1.452,-0.645,105.835,-18.250,-24.292
2.224,-1.605,-0.403,110.107,-36.316,-18.494
2.368,-1.515,-0.158,93.750,-53.528,-4.028
2.455,-1.397,0.006,58.777,-65.857,15.808
2.416,-1.345,0.104,18.433,-74.402,33.691
2.226,-1.267,0.033,-12.756,-78.369,48.706
1.762,-1.234,-0.189,-16.113,-81.238,61.157
1.745,-0.822,-0.462,17.151,-94.727,63.049
1.768,-0.488,-0.201,67.261,-109.558,42.419
1.497,-0.527,0.024,100.098,-97.229,8.789
1.147,-0.539,0.409,130.432,-50.781,-12.512
0.784,-0.693,0.629,165.833,17.578,-21.423
0.469,-0.678,0.680,148.254,94.788,-19.775
0.038,-0.568,0.416,105.957,155.884,-0.427
-0.478,-0.500,0.082,63.110,179.749,30.945
-0.977,-0.536,-0.097,1.343,165.955,64.575
-1.612,-0.724,-0.313,-68.298,137.085,90.454
-2.100,-0.884,-0.516,-114.563,105.835,113.342
-2.474,-0.951,-0.645,-124.817,80.811,131.409
-2.892,-0.888,-0.516,-99.060,70.313,130.493
-2.959,-0.915,-0.220,-51.758,82.947,90.881
-2.901,-0.877,-0.311,-51.331,120.483,18.433
-2.417,-1.077,-0.727,-74.890,162.109,-73.547
-1.858,-1.368,-1.344,-93.445,179.932,-165.894
-0.925,-1.623,-1.367,-94.421,137.512,-232.483
-0.384,-1.877,-1.458,-78.308,90.515,-264.099
0.115,-1.780,-1.403,-64.148,52.063,-250.000
0.345,-1.496,-1.342,-49.683,20.752,-195.374
0.437,-1.236,-1.056,-45.349,-9.033,-114.502
0.250,-1.108,-0.757,-46.875,-26.001,-38.635
0.044,-0.911,-0.448,-46.936,-34.546,23.987
-0.172,-0.659,-0.107,-34.546,-35.950,61.584
-0.351,-0.427,0.133,-24.353,-28.259,71.045
-0.445,-0.301,0.239,-22.949,-14.771,57.068
-0.461,-0.281,0.196,-26.123,-1.770,28.625
-0.401,-0.344,0.052,-31.372,6.104,-4.272
-0.299,-0.469,-0.103,-33.447,5.737,-34.424
-0.128,-0.626,-0.217,-33.203,-2.136,-53.284
0.047,-0.781,-0.223,-29.480,-14.954,-57.739
0.128,-0.864,-0.158,-20.508,-25.818,-49.622
0.155,-0.932,-0.060,-12.878,-28.564,-31.738
0.152,-0.978,-0.002,-9.399,-21.729,-9.216
0.124,-0.973,-0.003,-9.094,-8.728,12.329
0.062,-0.925,-0.028,-10.437,5.981,27.405
-0.006,-0.852,-0.102,-15.198,18.311,31.982
-0.011,-0.783,-0.214,-24.109,23.804,27.039
0.001,-0.769,-0.325,-32.227,20.630,15.015
0.037,-0.779,-0.420,-36.743,10.254,0.549
0.092,-0.811,-0.460,-36.316,-2.502,-10.986
0.124,-0.866,-0.457,-31.921,-13.733,-18.494
0.146,-0.921,-0.402,-27.100,-21.484,-20.203
0.153,-0.960,-0.341,-23.437,-24.231,-17.822
0.140,-1.025,-0.305,-22.095,-22.949,-14.282
0.133,-1.084,-0.274,-21.912,-20.142,-11.108
0.125,-1.101,-0.253,-19.104,-16.479,-8.606
0.114,-1.104,-0.256,-15.381,-11.780,-7.202
0.105,-1.097,-0.275,-11.780,-7.263,-6.653
0.105,-1.091,-0.300,-8.179,-3.601,-5.798
0.099,-1.098,-0.321,-3.723,-1.343,-4.700
0.099,-1.106,-0.324,0.732,-0.183,-2.319
0.106,-1.100,-0.334,4.333,0.488,0.610
0.106,-1.105,-0.350,5.188,0.671,3.113
0.102,-1.111,-0.351,4.761,-0.305,5.615
0.093,-1.095,-0.344,5.066,-1.587,8.728
0.059,-1.050,-0.335,5.981,-2.319,10.803
0.039,-1.001,-0.322,5.981,-1.831,10.925
0.038,-0.954,-0.332,4.822,0.793,9.155
0.032,-0.934,-0.358,2.991,3.906,6.470
0.038,-0.934,-0.381,0.244,5.310,4.272
0.050,-0.939,-0.385,-1.099,4.028,3.479
0.060,-0.951,-0.379,-2.014,0.793,2.686
0.073,-0.958,-0.367,-2.441,-2.930,2.625
0.078,-0.958,-0.351,-1.648,-5.737,2.869
0.076,-0.959,-0.328,0.061,-6.897,2.502
0.077,-0.958,-0.311,1.709,-5.920,2.014
0.077,-0.945,-0.290,3.174,-3.601,1.709
0.074,-0.935,-0.287,3.723,-1.160,1.648
0.068,-0.925,-0.301,3.235,0.244,1.770
0.058,-0.917,-0.305,2.625,-0.183,2.075
0.048,-0.914,-0.317,1.343,-2.380,1.404
0.047,-0.923,-0.326,-0.793,-5.615,-0.305
0.068,-0.948,-0.337,-2.014,-9.216,-3.174
0.093,-0.970,-0.332,-1.587,-12.634,-5.493
0.112,-0.996,-0.285,1.038,-14.771,-6.348
0.120,-0.998,-0.256,4.150,-13.672,-5.676
0.120,-0.978,-0.240,3.906,-9.155,-3.052
0.112,-0.967,-0.248,0.305,-3.601,1.099
0.105,-0.959,-0.283,-3.174,1.587,3.906
0.096,-0.953,-0.313,-4.150,4.578,4.883
0.088,-0.945,-0.324,-3.418,4.456,4.517
0.082,-0.937,-0.326,-2.014,2.686,2.502
0.072,-0.938,-0.324,-1.343,0.305,0.427
0.078,-0.928,-0.323,-0.793,-1.343,-0.854
0.082,-0.931,-0.320,-0.366,-2.625,-2.258
0.079,-0.959,-0.308,-0.488,-3.723,-3.479
0.082,-0.979,-0.284,-0.061,-4.333,-3.967
0.082,-0.985,-0.268,0.122,-3.906,-4.089
0.085,-0.991,-0.261,-0.488,-2.625,-3.357
0.090,-0.994,-0.263,-1.099,-0.977,-2.014
0.094,-0.993,-0.268,-1.404,0.427,-0.488
0.088,-0.990,-0.266,-2.197,1.831,1.099
0.079,-0.987,-0.275,-3.296,2.747,2.441
0.075,-0.986,-0.278,-4.944,2.991,3.296
0.079,-0.980,-0.296,-6.104,2.869,3.906
0.082,-0.965,-0.315,-5.188,2.319,3.479
0.075,-0.967,-0.332,-3.906,1.526,1.831
0.075,-0.971,-0.336,-2.747,0.000,-0.122
0.079,-0.969,-0.319,-0.061,-1.465,-1.831
0.080,-0.977,-0.298,1.526,-2.563,-3.540
0.082,-0.999,-0.288,0.488,-2.747,-4.395
0.083,-1.019,-0.291,-1.099,-3.052,-4.395
0.089,-1.033,-0.290,-1.770,-3.662,-3.296
0.102,-1.028,-0.274,-0.549,-4.150,-2.014
0.110,-1.022,-0.259,0.122,-3.357,-1.343
0.100,-1.015,-0.264,-0.305,-1.648,-0.549
0.090,-1.003,-0.273,-1.709,0.244,1.709
0.078,-0.992,-0.285,-3.540,1.282,4.272
0.070,-0.962,-0.291,-4.944,1.221,6.348
0.062,-0.938,-0.295,-6.042,0.427,6.836
0.056,-0.944,-0.290,-7.202,-0.427,4.944
0.054,-0.949,-0.294,-5.615,-1.099,2.380
0.063,-0.953,-0.298,-2.747,-1.465,-0.183
0.071,-0.967,-0.301,-0.549,-1.465,-2.686
0.078,-0.974,-0.299,1.160,-1.526,-4.333
0.087,-0.981,-0.291,2.136,-1.404,-5.005
0.092,-0.996,-0.291,1.099,-0.916,-4.944
0.098,-1.012,-0.293,0.000,-0.488,-4.211
0.100,-1.023,-0.293,-0.854,-0.366,-2.686
0.104,-1.018,-0.290,-1.770,-0.366,-0.854
0.101,-0.999,-0.298,-2.563,-0.366,0.977
0.095,-0.979,-0.315,-3.967,-0.427,2.258
0.085,-0.975,-0.331,-5.493,-0.793,3.052
0.078,-0.964,-0.335,-4.272,-1.831,3.479
0.084,-0.955,-0.332,-2.625,-2.991,2.869
0.081,-0.966,-0.313,-0.244,-3.723,1.831
0.078,-0.973,-0.292,2.136,-3.784,1.221
0.078,-0.981,-0.271,3.845,-2.869,1.160
0.084,-0.979,-0.268,4.150,-1.038,1.526
0.088,-0.970,-0.277,3.540,0.854,2.136
0.089,-0.982,-0.281,1.953,1.953,2.136

-0.009,0.143,-1.085,14.343,9.155,13.428
0.042,0.078,-1.133,5.554,3.113,14.343
0.072,0.058,-1.174,2.319,-6.042,15.686
0.064,0.033,-1.147,-1.709,-12.756,20.508
0.016,0.081,-1.121,-0.122,-17.212,25.696
-0.003,0.177,-1.066,2.380,-18.433,27.222
-0.014,0.251,-1.014,3.601,-16.602,22.339
0.011,0.214,-1.014,0.732,-12.390,11.536
0.084,0.157,-1.029,-2.258,-8.606,1.343
0.140,0.096,-1.021,-4.395,-5.798,-4.089
0.174,0.118,-0.983,-5.554,-2.747,-5.310
0.163,0.157,-1.034,-8.850,2.930,-5.737
0.165,0.131,-1.133,-14.221,7.324,-8.301
0.182,0.153,-1.169,-18.005,5.310,-11.047
0.192,0.185,-1.135,-22.339,0.061,-13.184
0.219,0.212,-1.079,-29.053,-3.418,-17.639
0.241,0.211,-1.055,-35.583,-3.601,-25.085
0.280,0.175,-1.065,-38.879,-1.770,-33.386
0.351,0.151,-1.103,-39.124,-0.916,-40.466
0.268,-0.041,-1.165,-39.795,-2.502,-42.542
0.106,-0.245,-1.186,-38.879,-8.911,-33.325
0.053,-0.273,-1.185,-30.762,-20.081,-13.550
0.079,-0.210,-1.051,-22.034,-31.677,6.775
0.090,-0.096,-0.947,-15.381,-34.363,21.667
0.049,-0.019,-0.889,-16.235,-31.128,27.832
0.032,0.026,-0.912,-18.921,-23.743,28.503
0.035,0.074,-0.974,-19.226,-17.822,25.085
0.045,0.078,-1.007,-19.714,-15.320,18.555
0.119,0.019,-1.017,-16.052,-14.343,10.925
0.137,-0.001,-1.050,-4.761,-13.733,4.028
0.175,-0.041,-1.005,7.629,-12.390,0.183
0.257,-0.023,-0.951,13.977,-6.348,2.441
0.278,-0.010,-0.943,17.517,3.479,7.568
0.221,0.011,-0.951,19.775,14.282,14.404
0.182,0.127,-1.006,17.273,23.132,21.790
0.149,0.205,-1.057,6.958,26.611,24.292
0.127,0.197,-1.090,-6.897,23.682,19.348
0.133,0.171,-1.099,-15.503,16.357,9.155
0.160,0.141,-1.082,-18.005,9.216,-2.808
0.190,0.091,-1.072,-19.470,5.310,-14.221
0.189,0.032,-1.093,-22.034,4.883,-21.667
0.182,0.002,-1.135,-27.039,4.761,-22.461
0.181,-0.015,-1.186,-33.813,2.136,-17.456
0.161,-0.036,-1.232,-39.001,-3.845,-9.766
0.133,-0.061,-1.239,-39.734,-12.573,-2.136
0.103,-0.074,-1.186,-34.424,-21.667,5.554
0.068,-0.068,-1.095,-23.376,-26.428,12.817
0.026,-0.060,-0.994,-13.123,-24.963,18.005
-0.036,-0.059,-0.906,-7.629,-18.005,21.301
-0.099,-0.036,-0.878,-12.085,-8.789,23.865
-0.145,0.011,-0.916,-29.053,-1.648,26.062
-0.192,0.045,-1.026,-52.246,0.061,27.588
-0.230,0.049,-1.162,-75.500,-5.981,27.893
-0.234,0.040,-1.268,-89.600,-18.860,26.428
-0.216,0.020,-1.277,-87.463,-33.508,23.132
-0.200,0.009,-1.217,-73.608,-42.786,18.616
-0.207,-0.012,-1.134,-56.396,-44.312,13.428
-0.209,-0.041,-1.062,-39.429,-38.757,9.277
-0.195,-0.051,-1.003,-22.095,-28.625,6.104
-0.195,-0.068,-0.937,-7.324,-16.479,2.991
-0.197,-0.078,-0.879,2.502,-4.639,-0.061
-0.169,-0.078,-0.875,7.324,6.287,-3.052
-0.121,-0.062,-0.895,9.399,15.991,-5.188
-0.090,-0.060,-0.927,11.658,22.583,-6.653
-0.083,-0.077,-0.953,14.160,25.513,-8.301
-0.095,-0.096,-0.960,18.066,25.391,-8.850
-0.098,-0.119,-0.982,19.409,23.865,-7.996
-0.066,-0.142,-1.012,14.771,20.569,-6.775
-0.040,-0.135,-1.034,7.507,14.221,-5.371
-0.033,-0.142,-1.043,2.930,4.272,-3.723
-0.033,-0.169,-1.001,1.221,-5.737,-0.916
-0.043,-0.205,-0.928,1.770,-11.658,3.174
-0.045,-0.201,-0.862,1.770,-10.254,8.789
-0.041,-0.165,-0.837,-1.160,-2.991,15.137
-0.040,-0.113,-0.853,-4.639,7.874,20.020
-0.069,-0.070,-0.898,-7.751,18.066,21.057
-0.116,-0.032,-0.961,-10.193,23.376,18.982
-0.150,-0.019,-1.009,-10.803,23.315,14.221
-0.149,-0.028,-1.013,-7.751,19.531,7.080
-0.126,-0.041,-0.996,-1.709,15.869,-1.831
-0.133,-0.097,-0.992,4.883,14.404,-9.949
-0.146,-0.171,-0.967,11.597,14.709,-15.442
-0.143,-0.215,-0.916,20.264,16.846,-15.381
-0.167,-0.246,-0.880,25.513,21.301,-11.658
-0.191,-0.249,-0.866,23.437,26.184,-5.615
-0.209,-0.219,-0.882,17.273,28.870,1.038
-0.236,-0.199,-0.911,10.803,27.893,8.301
-0.266,-0.185,-0.923,5.737,23.437,14.893
-0.270,-0.143,-0.899,3.052,18.127,21.423
-0.250,-0.081,-0.853,2.319,15.076,27.283
-0.254,-0.025,-0.808,-0.427,16.052,31.555
-0.310,0.015,-0.813,-7.751,19.836,34.912
-0.359,0.042,-0.865,-17.456,23.499,37.231
-0.364,0.050,-0.926,-26.245,24.231,36.804
-0.344,0.047,-0.978,-31.189,21.790,32.043
-0.322,0.027,-1.005,-31.677,17.578,24.231
-0.296,-0.005,-1.027,-30.151,13.672,16.418
-0.259,-0.034,-1.052,-29.419,11.597,11.780
-0.228,-0.058,-1.071,-29.541,10.254,10.803
-0.218,-0.062,-1.086,-28.198,8.545,11.963
-0.218,-0.040,-1.107,-26.428,6.104,13.306
-0.206,-0.030,-1.127,-25.269,2.319,13.123
-0.197,-0.069,-1.142,-24.109,-2.136,11.047
-0.195,-0.102,-1.128,-17.456,-7.080,9.766
-0.181,-0.116,-1.067,-5.432,-10.620,9.338
-0.160,-0.119,-0.998,6.836,-10.742,9.583
-0.153,-0.134,-0.948,15.320,-7.507,9.766
-0.159,-0.144,-0.922,19.409,-2.625,9.216
-0.162,-0.128,-0.906,21.179,1.526,8.057
-0.150,-0.093,-0.908,21.057,3.845,6.165
-0.133,-0.071,-0.926,17.334,3.723,2.258
-0.127,-0.079,-0.943,11.414,1.648,-2.563
-0.118,-0.104,-0.958,5.371,-1.953,-6.348
-0.086,-0.135,-0.962,0.488,-5.859,-9.705
-0.054,-0.166,-0.966,-3.235,-8.728,-11.475
-0.038,-0.181,-0.973,-6.592,-9.949,-10.925
-0.031,-0.187,-0.986,-9.766,-9.399,-8.179
-0.033,-0.180,-0.998,-12.085,-7.996,-4.883
-0.036,-0.154,-1.011,-14.038,-6.592,-1.770
-0.033,-0.134,-1.049,-16.052,-5.249,0.183
-0.033,-0.139,-1.085,-16.602,-4.578,1.099
-0.036,-0.150,-1.099,-13.245,-4.944,1.038
-0.035,-0.160,-1.101,-7.629,-5.127,0.977
-0.018,-0.160,-1.072,-0.244,-5.005,1.526
-0.011,-0.146,-1.032,8.911,-3.723,2.930
-0.017,-0.128,-0.994,16.174,-0.854,5.432
-0.038,-0.102,-0.976,19.409,2.625,8.911
-0.055,-0.068,-0.975,18.250,4.944,11.963
-0.067,-0.031,-0.970,14.099,5.432,13.245
-0.076,0.005,-0.970,7.690,3.479,11.536
-0.082,0.020,-0.990,-0.793,-0.061,7.446
-0.086,-0.005,-1.022,-9.399,-4.211,3.113
-0.075,-0.037,-1.049,-14.404,-8.789,-0.732
-0.049,-0.071,-1.069,-15.503,-13.062,-4.211
-0.015,-0.090,-1.047,-11.841,-15.564,-5.493
0.003,-0.109,-1.016,-5.127,-14.954,-5.676
-0.006,-0.136,-0.992,0.610,-11.353,-5.371
-0.016,-0.135,-0.978,5.005,-6.775,-3.418
-0.021,-0.117,-0.985,7.751,-2.563,-0.732
-0.027,-0.103,-0.993,6.836,-0.183,1.160
-0.028,-0.099,-0.996,4.761,0.122,2.136
-0.027,-0.095,-0.991,3.357,-1.038,2.197
-0.022,-0.083,-0.979,1.465,-2.258,2.563
-0.020,-0.071,-0.981,-0.977,-2.930,3.296
-0.030,-0.066,-0.996,-2.747,-3.174,4.272
-0.041,-0.067,-1.009,-3.479,-3.723,4.883
-0.047,-0.068,-1.012,-2.686,-4.639,4.150
-0.048,-0.073,-0.989,-0.671,-5.005,1.404
-0.048,-0.080,-0.958,1.038,-4.517,-1.587

0.090,0.087,-0.969,5.127,1.343,24.231
0.121,0.058,-0.912,3.662,2.502,26.489
0.125,0.120,-0.960,10.315,3.906,30.212
0.072,0.166,-0.941,11.108,8.179,32.776
0.028,0.191,-0.968,7.446,11.169,34.302
0.011,0.229,-1.006,5.493,12.085,31.738
0.017,0.265,-1.008,5.432,10.437,26.062
0.043,0.305,-0.983,4.639,7.690,17.639
0.027,0.281,-0.997,0.671,5.737,7.935
0.029,0.253,-0.994,-4.395,2.808,0.854
0.026,0.239,-0.995,-7.446,-0.854,-2.747
-0.005,0.239,-1.002,-10.986,-3.479,-4.822
-0.024,0.239,-1.010,-15.381,-6.592,-7.629
-0.012,0.242,-1.004,-18.494,-10.681,-12.207
0.001,0.229,-0.999,-19.958,-14.954,-17.883
0.001,0.169,-0.981,-22.217,-18.677,-22.644
0.070,0.137,-0.832,-25.208,-21.729,-24.658
0.019,0.091,-1.022,-28.259,-21.362,-22.400
0.044,0.105,-0.987,-30.701,-21.790,-16.663
0.055,0.134,-0.951,-30.518,-21.729,-13.489
0.018,0.024,-0.938,-26.306,-18.188,-14.160
-0.067,0.284,-0.974,-12.085,-11.353,-14.771
-0.062,0.312,-0.975,9.644,-2.991,-24.536
-0.003,0.189,-0.977,17.883,6.042,-43.335
0.067,0.051,-0.922,16.479,13.794,-55.908
0.118,0.006,-0.896,16.724,20.386,-57.983
0.152,0.007,-0.906,11.597,24.780,-51.636
0.173,-0.001,-0.924,2.747,27.039,-39.734
0.183,0.001,-0.959,-2.930,27.466,-26.794
0.179,-0.018,-0.999,-3.967,27.527,-15.686
0.149,-0.002,-1.057,-1.526,26.917,-7.812
0.102,0.076,-1.119,-0.732,24.780,-3.967
0.059,0.145,-1.124,-3.845,20.020,-2.869
0.057,0.134,-1.064,-7.385,13.611,-4.639
0.104,0.098,-1.001,-7.141,8.911,-8.484
0.174,0.071,-0.989,-5.066,7.507,-13.367
0.240,0.063,-1.017,-0.366,9.094,-17.456
0.297,0.068,-1.029,5.066,11.414,-20.325
0.342,0.051,-1.032,8.179,13.367,-20.813
0.361,0.047,-1.031,9.094,14.954,-19.226
0.372,0.109,-1.029,5.615,15.320,-17.883
0.424,0.164,-1.054,-2.014,14.954,-20.325
0.522,0.152,-1.135,-8.423,14.893,-26.794
0.646,0.109,-1.227,-11.230,14.343,-34.668
0.743,0.074,-1.291,-8.789,12.451,-40.222
0.806,0.080,-1.314,-4.272,9.949,-43.762
0.853,0.117,-1.312,-1.343,8.423,-46.326
0.884,0.148,-1.309,0.732,9.644,-49.805
0.886,0.182,-1.286,3.723,13.306,-53.589
0.876,0.208,-1.273,6.470,18.005,-58.289
0.851,0.234,-1.304,7.141,22.400,-63.965
0.810,0.251,-1.295,4.639,22.766,-71.716
0.771,0.272,-1.231,0.366,19.958,-81.665
0.722,0.278,-1.224,-9.033,17.151,-93.140
0.725,0.267,-1.242,-24.048,10.193,-103.943
0.758,0.210,-1.270,-40.955,-0.244,-114.441
0.806,0.091,-1.291,-57.556,-11.780,-122.986
0.851,-0.092,-1.310,-70.129,-21.973,-127.136
0.904,-0.265,-1.263,-75.012,-29.846,-122.620
0.925,-0.346,-1.118,-76.050,-35.034,-108.582
0.858,-0.364,-0.941,-82.214,-36.255,-90.210
0.719,-0.367,-0.768,-97.046,-33.203,-71.106
0.558,-0.388,-0.645,-122.192,-27.954,-52.734
0.440,-0.419,-0.569,-153.564,-21.729,-35.217
0.308,-0.503,-0.629,-186.340,-13.977,-19.836
0.170,-0.643,-0.716,-214.722,-9.399,-4.456
0.022,-0.764,-0.769,-234.802,-7.690,14.771
-0.128,-0.848,-0.774,-243.408,-5.676,39.612
-0.294,-0.919,-0.725,-241.699,0.061,68.481
-0.460,-0.962,-0.674,-234.558,12.146,98.999
-0.716,-0.980,-0.610,-228.882,29.480,127.991
-1.038,-0.948,-0.591,-234.497,50.049,152.466
-1.302,-0.876,-0.649,-248.474,72.449,170.715
-1.477,-0.833,-0.733,-260.925,94.360,182.617
-1.567,-0.757,-0.861,-269.714,113.525,186.768
-1.696,-0.719,-1.003,-273.132,127.014,182.556
-1.704,-0.653,-1.253,-268.372,132.996,172.729
-1.611,-0.585,-1.437,-246.887,127.686,160.217
-1.444,-0.438,-1.531,-204.773,113.892,146.912
-1.231,-0.195,-1.482,-148.010,96.375,131.897
-1.062,0.047,-1.459,-90.149,79.895,114.807
-0.798,0.180,-1.258,-42.297,61.646,95.398
-0.699,0.182,-1.207,-14.343,54.810,78.430
-0.648,0.142,-1.169,5.066,52.856,63.782
-0.602,0.085,-1.148,27.405,49.988,49.438
-0.531,-0.011,-1.127,47.302,43.335,32.532
-0.445,-0.135,-1.091,64.941,32.349,13.306
-0.353,-0.262,-1.015,81.665,17.578,-5.554
-0.272,-0.389,-0.910,94.299,1.648,-22.644
-0.208,-0.509,-0.784,102.173,-12.695,-36.011
-0.151,-0.594,-0.651,104.858,-24.597,-43.823
-0.090,-0.654,-0.551,101.990,-31.982,-46.143
-0.027,-0.688,-0.501,92.651,-35.889,-43.335
0.026,-0.674,-0.476,77.026,-38.147,-36.438
0.050,-0.639,-0.471,54.932,-39.673,-28.015
0.036,-0.619,-0.515,29.053,-40.955,-20.020
0.030,-0.599,-0.598,6.409,-42.053,-13.000
0.039,-0.556,-0.661,-8.545,-43.274,-7.812
0.050,-0.496,-0.683,-17.944,-44.250,-6.287
0.057,-0.464,-0.714,-22.888,-43.640,-8.545
0.056,-0.476,-0.762,-24.475,-41.443,-14.771
0.065,-0.510,-0.798,-23.010,-37.659,-22.278
0.056,-0.554,-0.867,-18.311,-34.973,-28.442
0.105,-0.583,-0.849,-10.010,-37.048,-32.776
0.143,-0.606,-0.829,-1.404,-34.851,-36.255
0.180,-0.643,-0.795,6.714,-30.762,-38.269
0.204,-0.671,-0.763,13.550,-24.963,-38.086
0.215,-0.687,-0.752,16.602,-17.883,-34.363
0.214,-0.704,-0.772,15.198,-11.230,-27.771
0.206,-0.706,-0.796,12.329,-6.409,-18.982
0.196,-0.682,-0.829,9.827,-3.357,-9.033
0.176,-0.640,-0.874,7.202,-2.014,0.183
0.152,-0.597,-0.908,5.310,-2.625,8.484
0.122,-0.559,-0.921,6.287,-4.211,14.587
0.091,-0.515,-0.915,8.545,-6.348,17.029
0.069,-0.486,-0.896,12.451,-8.240,16.235
0.051,-0.474,-0.867,16.479,-9.216,13.306
0.041,-0.469,-0.836,18.677,-9.155,8.728
0.042,-0.475,-0.816,19.165,-7.629,3.845
0.057,-0.489,-0.819,17.578,-5.676,-0.793
0.086,-0.510,-0.844,15.625,-3.906,-4.517
0.113,-0.528,-0.876,14.832,-3.601,-6.287
0.121,-0.537,-0.899,13.550,-4.944,-6.348
0.120,-0.537,-0.910,12.939,-7.446,-5.188
0.116,-0.532,-0.898,13.123,-10.437,-3.174
0.117,-0.516,-0.869,13.611,-13.123,-1.160
0.128,-0.501,-0.846,15.076,-14.099,-0.427
0.140,-0.495,-0.839,17.029,-13.306,-0.427
0.149,-0.500,-0.833,18.799,-11.292,-0.488
0.153,-0.501,-0.820,21.057,-8.423,-0.610
0.158,-0.502,-0.810,22.766,-5.127,-0.488
0.157,-0.496,-0.806,23.193,-1.648,-0.183
0.157,-0.483,-0.816,21.423,1.587,0.244
0.156,-0.472,-0.841,18.188,4.333,0.977
0.149,-0.470,-0.868,13.550,5.493,1.831
0.137,-0.474,-0.884,8.179,5.310,2.380
0.134,-0.475,-0.902,4.700,4.639,3.174
0.138,-0.466,-0.922,3.601,3.967,3.479
0.137,-0.452,-0.937,3.357,2.930,3.296
0.140,-0.448,-0.944,2.808,1.526,2.502
0.138,-0.457,-0.950,2.625,0.122,1.160
0.136,-0.472,-0.958,3.479,-0.793,-0.061
0.141,-0.482,-0.959,5.493,-1.465,-0.427
0.154,-0.482,-0.948,7.751,-1.587,-0.183
0.170,-0.471,-0.929,9.827,-1.160,0.854
0.170,-0.449,-0.917,11.169,-0.549,2.380
0.157,-0.437,-0.904,10.132,0.000,3.723
0.141,-0.426,-0.904,6.958,0.610,4.639
0.130,-0.428,-0.913,3.906,0.427,4.822

0.267,-0.286,-0.970,-2.930,11.292,4.333
0.307,-0.302,-0.925,0.000,13.733,7.751
0.321,-0.227,-0.951,1.160,13.611,13.367
0.227,-0.238,-0.931,-2.014,15.320,14.282
0.229,-0.254,-0.921,-1.892,17.639,11.658
0.272,-0.276,-0.927,-0.427,18.677,7.874
0.283,-0.282,-0.936,-2.747,18.921,7.385
0.278,-0.240,-0.942,-7.019,18.799,8.484
0.295,-0.245,-0.943,-13.367,17.700,6.226
0.354,-0.267,-0.937,-22.888,15.625,3.479
0.360,-0.318,-0.934,-36.560,12.878,4.028
0.370,-0.314,-0.934,-50.598,9.094,7.080
0.379,-0.262,-0.922,-61.584,4.761,8.118
0.408,-0.265,-0.901,-70.679,0.549,3.235
0.501,-0.314,-0.852,-76.416,-2.991,-4.089
0.585,-0.419,-0.831,-77.332,-4.272,-8.911
0.673,-0.474,-0.837,-72.449,-2.563,-8.545
0.745,-0.544,-0.881,-64.941,1.587,-3.479
0.791,-0.509,-0.920,-57.373,6.775,5.676
0.784,-0.494,-0.970,-49.500,5.554,13.489
0.754,-0.422,-0.981,-41.565,4.578,17.334
0.731,-0.419,-0.981,-35.645,1.770,14.648
0.665,-0.417,-1.008,-32.532,-2.075,5.920
0.572,-0.381,-1.047,-26.062,-7.935,-5.920
0.634,-0.339,-0.982,-13.550,-16.724,-21.729
0.660,-0.309,-0.877,-6.348,-25.574,-40.405
0.633,-0.345,-0.838,-14.832,-30.151,-54.504
0.614,-0.504,-0.818,-26.733,-30.518,-55.847
0.650,-0.563,-0.765,-36.987,-32.104,-41.748
0.649,-0.515,-0.725,-46.814,-33.508,-22.766
0.562,-0.495,-0.708,-58.838,-33.142,-7.751
0.437,-0.480,-0.743,-76.904,-31.982,2.014
0.336,-0.460,-0.829,-99.243,-33.020,7.629
0.280,-0.440,-0.934,-122.498,-39.185,7.446
0.244,-0.447,-1.004,-141.174,-50.720,2.686
0.236,-0.472,-1.022,-149.719,-63.782,-3.113
0.260,-0.501,-1.026,-146.606,-72.144,-7.324
0.308,-0.542,-0.985,-134.338,-72.754,-10.803
0.343,-0.557,-0.912,-112.244,-65.491,-13.977
0.336,-0.543,-0.827,-86.182,-52.307,-16.174
0.313,-0.535,-0.759,-65.491,-37.231,-18.250
0.291,-0.532,-0.713,-53.772,-24.963,-20.447
0.276,-0.536,-0.646,-50.110,-18.066,-23.682
0.264,-0.544,-0.629,-52.124,-15.991,-27.283
0.266,-0.606,-0.687,-60.242,-16.602,-29.297
0.310,-0.707,-0.807,-72.998,-19.470,-28.015
0.362,-0.778,-0.881,-82.825,-24.780,-23.804
0.378,-0.802,-0.851,-81.177,-30.334,-18.311
0.372,-0.804,-0.767,-73.242,-33.081,-14.771
0.352,-0.804,-0.677,-66.406,-30.823,-12.939
0.344,-0.828,-0.659,-61.707,-24.414,-12.390
0.361,-0.865,-0.661,-56.946,-17.151,-11.841
0.390,-0.895,-0.665,-49.255,-11.047,-10.193
0.402,-0.910,-0.640,-39.795,-6.531,-7.935
0.392,-0.919,-0.593,-31.677,-2.136,-5.127
0.371,-0.932,-0.538,-25.818,4.089,-1.648
0.352,-0.934,-0.500,-21.118,12.329,1.953
0.355,-0.928,-0.518,-19.409,21.362,5.066
0.362,-0.937,-0.564,-22.827,28.259,9.094
0.335,-0.941,-0.582,-28.687,30.151,14.832
0.279,-0.911,-0.579,-34.607,28.259,22.583
0.219,-0.864,-0.570,-41.382,25.757,31.311
0.151,-0.828,-0.591,-48.401,24.353,38.025
0.084,-0.810,-0.607,-52.979,24.170,40.955
0.020,-0.818,-0.606,-52.124,25.024,40.039
-0.043,-0.834,-0.555,-47.607,26.550,35.156
-0.085,-0.837,-0.549,-41.382,29.968,28.198
-0.074,-0.853,-0.592,-35.889,34.607,20.874
-0.040,-0.883,-0.637,-30.029,38.147,15.137
-0.029,-0.920,-0.653,-21.790,39.795,12.146
-0.026,-0.932,-0.644,-11.658,40.588,13.123
-0.031,-0.931,-0.628,-2.014,41.565,17.578
-0.048,-0.928,-0.595,4.272,43.274,24.109
-0.082,-0.911,-0.511,6.775,45.776,30.945
-0.099,-0.850,-0.467,6.653,49.866,36.011
-0.091,-0.779,-0.501,2.869,55.725,38.513
-0.086,-0.729,-0.573,-4.639,59.021,37.842
-0.081,-0.695,-0.662,-10.376,56.335,35.461
-0.082,-0.671,-0.727,-11.047,47.302,33.203
-0.089,-0.644,-0.731,-6.470,34.058,31.616
-0.081,-0.599,-0.692,-0.366,21.118,29.114
-0.059,-0.551,-0.654,5.310,11.597,25.879
-0.040,-0.537,-0.630,9.155,6.470,20.813
-0.029,-0.544,-0.614,13.062,4.028,15.564
-0.007,-0.545,-0.600,18.433,3.296,10.864
0.038,-0.561,-0.578,23.804,3.662,6.531
0.077,-0.570,-0.579,27.832,3.723,1.770
0.118,-0.614,-0.520,30.945,0.488,-1.709
0.112,-0.677,-0.501,32.166,-0.366,-4.028
0.131,-0.714,-0.492,31.677,-0.854,-4.150
0.165,-0.725,-0.488,30.884,-1.099,-2.869
0.191,-0.719,-0.489,28.381,-0.610,-1.648
0.203,-0.711,-0.505,24.780,0.427,-0.366
0.197,-0.696,-0.525,20.325,1.160,1.526
0.196,-0.660,-0.550,14.526,0.916,4.150
0.200,-0.624,-0.580,8.423,-0.244,5.737
0.199,-0.605,-0.596,2.380,-2.625,4.578
0.206,-0.613,-0.620,-0.854,-5.432,1.099
0.221,-0.640,-0.638,-0.305,-7.996,-3.296
0.242,-0.676,-0.642,2.625,-9.644,-7.385
0.264,-0.720,-0.661,7.751,-9.644,-10.620
0.284,-0.756,-0.683,13.672,-8.179,-10.986
0.300,-0.765,-0.703,20.203,-5.127,-8.850
0.315,-0.754,-0.729,25.879,-0.977,-5.920
0.325,-0.757,-0.718,31.006,3.479,-3.540
0.330,-0.750,-0.705,36.865,7.935,-2.075
0.320,-0.735,-0.703,42.908,12.329,-1.526
0.309,-0.719,-0.706,44.861,15.869,-0.671
0.305,-0.703,-0.707,43.701,17.334,0.000
0.306,-0.689,-0.717,41.016,16.907,0.427
0.316,-0.683,-0.725,38.391,14.526,0.427
0.318,-0.693,-0.738,35.339,10.864,-0.183
0.301,-0.712,-0.751,32.471,6.409,0.183
0.286,-0.716,-0.752,29.785,2.075,1.831
0.279,-0.693,-0.754,27.893,-1.099,3.784
0.273,-0.676,-0.763,26.245,-2.563,5.371
0.273,-0.664,-0.763,25.208,-3.479,5.554
0.276,-0.641,-0.764,26.855,-3.723,4.700
0.272,-0.639,-0.767,29.907,-3.479,2.747
0.255,-0.668,-0.755,32.166,-2.808,0.732
0.246,-0.686,-0.727,35.034,-2.136,-0.854
0.262,-0.671,-0.724,39.795,-0.183,-1.648
0.278,-0.650,-0.735,43.213,2.808,-2.075
0.276,-0.662,-0.753,43.823,5.554,-2.075
0.257,-0.673,-0.761,44.434,7.019,-1.099
0.244,-0.655,-0.763,46.692,7.629,0.671
0.252,-0.612,-0.763,48.584,8.545,2.014
0.262,-0.575,-0.769,49.561,9.460,1.770
0.267,-0.564,-0.774,49.133,9.644,0.122
0.259,-0.569,-0.767,48.706,8.240,-1.953
0.249,-0.578,-0.758,48.096,6.042,-3.662
0.256,-0.569,-0.740,46.326,3.662,-4.272
0.289,-0.533,-0.726,44.189,1.892,-4.578
0.309,-0.520,-0.727,41.382,0.732,-5.127
0.295,-0.535,-0.735,36.682,0.000,-6.409
0.277,-0.557,-0.737,31.921,-1.160,-7.385
0.279,-0.560,-0.734,27.893,-2.563,-7.568
0.304,-0.546,-0.744,23.682,-3.296,-8.118
0.327,-0.548,-0.762,19.470,-3.662,-8.789
0.338,-0.561,-0.768,15.686,-4.578,-8.911
0.341,-0.562,-0.768,13.245,-5.859,-7.874
0.344,-0.548,-0.769,11.230,-6.348,-5.554
0.347,-0.545,-0.771,8.179,-5.920,-3.723
0.340,-0.552,-0.779,5.371,-5.066,-2.686
0.334,-0.558,-0.786,3.967,-3.906,-2.686
0.341,-0.557,-0.793,4.089,-3.052,-3.845
0.343,-0.548,-0.805,4.150,-1.892,-4.700
0.337,-0.556,-0.817,2.258,-1.099,-5.127
0.332,-0.569,-0.830,-0.610,-1.221,-5.005

0.379,-0.031,-1.361,-4.822,62.622,21.912
0.467,0.034,-1.359,2.808,61.279,35.034
0.451,0.209,-1.388,16.907,59.448,48.157
0.408,0.303,-1.423,20.325,58.533,53.711
0.472,0.398,-1.421,25.208,56.580,49.683
0.522,0.428,-1.381,28.748,53.284,38.635
0.611,0.383,-1.386,25.146,50.110,28.015
0.700,0.418,-1.403,19.592,44.617,22.461
0.732,0.460,-1.481,11.047,37.537,19.531
0.765,0.541,-1.579,4.395,27.649,15.747
0.785,0.565,-1.615,2.380,15.320,8.179
0.819,0.523,-1.603,0.793,2.502,-2.441
0.886,0.470,-1.557,-3.174,-8.362,-10.254
0.924,0.398,-1.532,-8.789,-16.785,-15.015
0.949,0.322,-1.499,-10.437,-23.743,-17.334
0.941,0.218,-1.440,-7.263,-29.846,-15.869
0.915,0.159,-1.333,-1.831,-36.011,-8.667
0.845,0.170,-1.292,0.854,-36.743,3.540
0.772,0.203,-1.176,-6.226,-40.100,18.555
0.665,0.255,-1.119,-14.709,-46.692,31.006
0.574,0.347,-1.060,-23.499,-47.668,38.330
0.461,0.400,-1.041,-36.194,-45.898,38.818
0.337,0.390,-1.045,-49.255,-42.480,32.776
0.240,0.277,-1.005,-55.908,-38.635,23.437
0.194,0.225,-0.907,-51.086,-34.180,15.015
0.148,0.199,-0.852,-41.504,-25.940,7.812
0.076,0.192,-0.819,-38.574,-15.442,3.113
-0.025,0.016,-0.854,-37.964,-5.371,1.099
-0.073,-0.011,-0.820,-39.185,0.977,3.784
-0.114,0.014,-0.753,-35.461,4.333,8.850
-0.174,0.001,-0.720,-35.400,7.141,13.123
-0.244,-0.010,-0.688,-45.837,9.155,18.616
-0.317,-0.030,-0.681,-58.594,10.986,25.696
-0.386,-0.057,-0.702,-70.679,12.634,34.668
-0.452,-0.067,-0.740,-83.191,14.099,45.227
-0.505,-0.071,-0.790,-94.788,15.686,56.824
-0.550,-0.075,-0.828,-104.431,17.517,68.054
-0.583,-0.071,-0.856,-113.159,19.043,76.294
-0.601,-0.069,-0.884,-119.324,19.531,79.834
-0.583,-0.086,-0.941,-119.507,17.517,78.613
-0.616,-0.091,-1.017,-109.009,10.986,74.463
-0.651,-0.079,-1.063,-102.722,1.343,70.801
-0.649,-0.101,-1.091,-97.900,-6.958,68.237
-0.618,-0.125,-1.118,-91.492,-14.282,66.589
-0.574,-0.126,-1.137,-82.092,-21.423,65.247
-0.524,-0.111,-1.115,-72.876,-28.015,62.561
-0.461,-0.112,-1.085,-61.462,-33.386,56.396
-0.417,-0.133,-1.034,-51.270,-38.025,47.363
-0.387,-0.175,-0.973,-44.312,-41.504,36.011
-0.345,-0.184,-0.922,-38.574,-43.091,24.231
-0.284,-0.156,-0.920,-31.616,-42.297,13.916
-0.218,-0.154,-0.929,-26.978,-39.917,5.737
-0.168,-0.187,-0.923,-26.428,-37.048,0.916
-0.132,-0.223,-0.910,-24.719,-33.752,0.122
-0.104,-0.230,-0.893,-19.409,-29.724,2.258
-0.083,-0.195,-0.874,-12.085,-24.780,5.310
-0.070,-0.153,-0.858,-5.554,-19.958,7.568
-0.068,-0.130,-0.842,-2.136,-15.747,7.568
-0.065,-0.128,-0.836,-2.258,-11.963,6.226
-0.057,-0.140,-0.841,-4.333,-9.216,4.395
-0.044,-0.146,-0.854,-7.507,-7.446,1.587
-0.029,-0.148,-0.880,-10.803,-6.775,-1.648
-0.017,-0.157,-0.921,-15.137,-7.385,-4.456
-0.010,-0.163,-0.965,-18.677,-9.644,-6.470
0.004,-0.161,-1.009,-20.508,-13.428,-8.057
0.018,-0.168,-1.042,-21.240,-18.250,-9.827
0.026,-0.188,-1.068,-20.020,-23.621,-11.475
0.031,-0.221,-1.078,-15.076,-29.236,-12.939
0.028,-0.259,-1.072,-7.751,-34.119,-13.428
0.028,-0.263,-1.041,1.526,-37.720,-12.939
0.041,-0.234,-1.000,12.085,-39.490,-10.925
0.055,-0.202,-0.941,20.203,-39.307,-9.460
0.065,-0.168,-0.890,23.376,-36.804,-7.874
0.072,-0.152,-0.860,20.874,-32.227,-6.775
0.080,-0.165,-0.861,15.991,-26.123,-6.775
0.081,-0.197,-0.883,11.597,-20.203,-7.446
0.067,-0.222,-0.913,9.644,-14.709,-7.019
0.047,-0.227,-0.936,9.338,-10.437,-5.798
0.023,-0.205,-0.963,10.010,-7.324,-3.235
0.003,-0.165,-0.989,10.071,-5.432,1.526
-0.027,-0.127,-1.010,8.789,-4.944,5.920
-0.052,-0.092,-1.023,7.568,-5.310,9.033
-0.061,-0.057,-1.041,6.409,-6.226,8.972
-0.061,-0.044,-1.068,6.226,-7.690,5.188
-0.064,-0.074,-1.098,6.958,-10.132,-2.136
-0.068,-0.130,-1.117,11.108,-13.550,-10.498
-0.069,-0.193,-1.125,19.836,-17.822,-18.616
-0.065,-0.247,-1.108,30.151,-21.973,-23.560
-0.055,-0.265,-1.070,39.734,-25.940,-24.536
-0.051,-0.256,-1.026,46.631,-28.809,-22.095
-0.056,-0.226,-0.986,50.842,-30.151,-17.883
-0.069,-0.193,-0.953,52.246,-30.334,-13.428
-0.084,-0.175,-0.927,49.927,-29.480,-9.399
-0.069,-0.138,-0.907,46.448,-28.503,-5.920
-0.030,-0.076,-0.900,45.288,-26.978,-5.188
0.024,-0.019,-0.909,45.227,-25.879,-7.446
0.067,-0.017,-0.916,44.678,-25.940,-13.306
0.085,-0.087,-0.913,42.542,-26.306,-20.020
0.083,-0.197,-0.908,39.063,-26.001,-23.804
0.088,-0.275,-0.910,36.987,-24.414,-22.827
0.124,-0.269,-0.922,38.757,-21.851,-18.738
0.201,-0.185,-0.940,46.143,-19.409,-13.977
0.295,-0.056,-0.933,56.885,-18.250,-10.742
0.382,0.093,-0.899,66.711,-18.127,-11.597
0.457,0.199,-0.859,71.411,-18.127,-16.846
0.519,0.209,-0.807,71.167,-17.944,-25.208
0.578,0.128,-0.773,66.650,-17.029,-32.837
0.639,-0.017,-0.714,59.998,-15.137,-36.133
0.662,-0.093,-0.724,54.199,-9.827,-32.166
0.654,-0.096,-0.802,41.992,-2.197,-22.095
0.665,-0.094,-0.841,27.100,5.127,-9.583
0.673,-0.112,-0.881,18.677,11.292,0.488
0.672,-0.080,-0.942,15.991,16.052,9.521
0.677,-0.020,-0.955,17.395,19.104,16.846
0.679,0.073,-0.930,23.193,21.362,22.644
0.649,0.195,-0.926,27.161,24.292,26.978
0.589,0.280,-0.955,24.902,27.466,29.114
0.512,0.281,-0.996,17.456,29.236,28.748
0.445,0.250,-1.041,10.193,28.137,26.794
0.403,0.233,-1.063,5.737,24.658,23.743
0.394,0.226,-1.075,2.625,19.592,18.494
0.400,0.202,-1.089,-0.366,14.282,11.292
0.405,0.164,-1.098,-2.075,8.972,4.456
0.407,0.134,-1.097,-3.479,3.845,-1.099
0.406,0.107,-1.091,-5.188,-0.549,-3.662
0.393,0.082,-1.084,-7.690,-4.211,-3.357
0.371,0.061,-1.075,-9.583,-7.141,-0.854
0.342,0.050,-1.064,-10.559,-9.155,3.113
0.315,0.051,-1.057,-10.559,-10.193,7.202
0.296,0.060,-1.032,-9.521,-10.803,10.803
0.279,0.081,-0.993,-7.874,-10.376,12.939
0.261,0.109,-0.979,-6.287,-8.484,13.489
0.240,0.112,-0.975,-6.714,-5.920,12.512
0.221,0.107,-0.991,-7.507,-3.418,11.353
0.208,0.104,-1.015,-6.897,-1.953,9.705
0.201,0.105,-1.031,-4.883,-1.587,8.301
0.199,0.105,-1.028,-2.380,-2.197,6.897
0.195,0.103,-1.013,1.099,-3.174,5.859
0.183,0.107,-0.990,3.845,-3.845,5.310
0.170,0.117,-0.963,6.042,-3.967,4.883
0.164,0.120,-0.942,6.653,-3.601,4.150
0.161,0.121,-0.931,6.104,-2.991,2.991
0.167,0.123,-0.933,4.883,-2.380,1.526
0.176,0.116,-0.934,3.479,-2.014,0.183
0.185,0.107,-0.933,3.174,-1.709,-0.427
0.192,0.109,-0.935,3.540,-1.526,-0.732
0.197,0.109,-0.941,4.089,-2.014,-0.854
0.197,0.110,-0.936,4.150,-2.747,-0.854
0.193,0.117,-0.922,4.211,-3.418,-1.038

0.761,-0.747,-1.336,17.029,44.983,-25.391
0.691,-0.684,-1.182,8.118,26.245,1.038
0.590,-0.510,-1.184,3.967,28.198,15.930
0.619,-0.425,-1.364,-2.136,36.804,14.648
0.744,-0.460,-1.572,-9.399,36.560,3.296
0.838,-0.627,-1.676,-20.020,21.729,-7.996
0.936,-0.810,-1.648,-29.419,0.793,-13.855
1.023,-0.983,-1.582,-35.889,-15.808,-12.756
1.141,-1.211,-1.596,-40.894,-24.292,-4.028
1.241,-1.465,-1.691,-38.269,-27.344,13.367
1.299,-1.586,-1.715,-28.198,-31.555,41.992
1.237,-1.622,-1.584,-15.747,-36.682,80.261
1.111,-1.558,-1.438,0.183,-35.950,120.300
0.975,-1.418,-1.355,18.677,-29.846,156.433
0.826,-1.302,-1.226,32.959,-26.245,185.364
0.635,-1.246,-1.002,35.400,-30.090,210.754
0.432,-1.158,-0.809,16.968,-40.405,239.014
0.139,-1.083,-0.622,-21.973,-52.612,270.935
-0.078,-0.885,-0.626,-63.782,-67.078,303.650
-0.264,-0.661,-0.773,-101.379,-81.482,333.923
-0.512,-0.427,-0.896,-123.657,-91.797,360.962
-0.829,-0.262,-0.932,-125.000,-90.027,382.507
-1.103,-0.098,-0.796,-111.328,-71.960,394.348
-1.301,0.095,-0.650,-89.233,-38.025,391.846
-1.504,0.328,-0.652,-59.631,3.845,371.704
-1.592,0.447,-0.623,-26.062,38.635,334.961
-1.654,0.549,-0.624,5.432,68.665,290.466
-1.618,0.715,-0.649,33.508,90.576,244.202
-1.510,0.782,-0.742,45.715,102.905,201.294
-1.417,0.750,-0.908,41.565,105.408,167.358
-1.348,0.712,-0.998,34.424,97.412,143.982
-1.275,0.726,-1.000,29.785,82.397,130.554
-1.179,0.776,-0.952,28.931,66.528,120.850
-1.079,0.812,-0.844,27.649,52.795,107.971
-0.999,0.836,-0.749,23.071,43.884,89.172
-0.920,0.810,-0.729,12.512,39.307,65.186
-0.814,0.733,-0.747,-2.747,35.034,39.246
-0.716,0.636,-0.778,-16.846,28.076,13.489
-0.615,0.516,-0.804,-28.198,18.250,-9.399
-0.502,0.402,-0.851,-38.940,7.202,-28.320
-0.385,0.283,-0.919,-49.133,-3.845,-41.931
-0.263,0.158,-0.976,-56.702,-15.198,-50.598
-0.158,0.058,-1.013,-58.838,-26.367,-55.481
-0.076,-0.017,-1.010,-54.382,-35.950,-57.007
-0.021,-0.061,-0.986,-46.326,-42.603,-55.359
0.022,-0.063,-0.947,-36.682,-45.776,-52.673
0.071,-0.058,-0.893,-27.771,-44.922,-50.415
0.117,-0.047,-0.859,-21.301,-40.161,-49.866
0.156,-0.046,-0.829,-16.296,-33.691,-49.988
0.182,-0.068,-0.827,-13.245,-25.574,-49.988
0.213,-0.083,-0.853,-11.536,-16.541,-48.645
0.251,-0.098,-0.877,-8.606,-8.362,-45.715
0.284,-0.112,-0.903,-5.371,-1.099,-41.260
0.311,-0.127,-0.936,-3.418,5.371,-35.645
0.328,-0.127,-0.982,-2.441,10.925,-28.442
0.328,-0.120,-1.032,-2.197,14.832,-20.508
0.314,-0.103,-1.076,-2.319,16.541,-12.939
0.297,-0.084,-1.113,-1.343,15.747,-6.165
0.281,-0.076,-1.133,-0.244,13.123,-0.488
0.260,-0.062,-1.126,1.282,9.827,5.249
0.222,-0.031,-1.103,3.540,6.836,10.498
0.181,-0.000,-1.071,5.310,5.188,15.076
0.154,0.030,-1.050,5.859,5.371,18.738
0.131,0.061,-1.040,5.615,6.409,21.545
0.114,0.101,-1.040,5.066,7.690,22.766
0.090,0.111,-1.044,3.601,8.545,22.888
0.056,0.118,-1.063,1.160,8.545,23.437
0.029,0.142,-1.084,-0.549,7.080,23.376
0.012,0.146,-1.092,-3.052,4.395,20.752
0.000,0.147,-1.099,-4.517,1.587,15.625
0.003,0.146,-1.103,-3.784,-0.549,8.240
0.019,0.120,-1.100,-2.686,-2.625,0.000
0.046,0.078,-1.090,-0.977,-4.272,-6.470
0.075,0.048,-1.074,1.892,-5.127,-10.803
0.097,0.025,-1.050,4.333,-5.432,-12.085
0.109,0.011,-1.030,6.165,-5.005,-10.864
0.116,0.012,-1.014,7.202,-4.089,-8.179
0.120,0.008,-1.003,6.897,-3.113,-5.554
0.124,0.007,-0.988,6.104,-1.892,-4.578
0.127,0.012,-0.983,5.493,-1.099,-4.517
0.130,0.014,-0.998,3.906,-0.610,-4.333
0.133,0.013,-1.015,2.014,-1.099,-3.601
0.130,0.020,-1.027,1.282,-2.319,-2.258
0.123,0.032,-1.030,1.770,-3.662,-0.671
0.113,0.051,-1.020,2.197,-5.188,0.671
0.101,0.065,-1.005,1.709,-6.042,1.709
0.088,0.078,-0.996,1.648,-6.042,1.831
0.079,0.083,-0.990,2.258,-5.432,0.366
0.071,0.080,-0.977,2.380,-4.822,-2.197
0.086,0.083,-0.949,2.625,-3.784,-4.639
0.107,0.089,-0.942,2.136,-1.831,-6.897
0.124,0.072,-0.968,-0.244,0.793,-8.667
0.138,0.051,-0.999,-3.052,1.770,-9.705
0.151,0.044,-1.019,-4.517,0.977,-9.644
0.149,0.033,-1.032,-5.615,-1.038,-8.728
0.146,0.025,-1.045,-7.019,-3.418,-7.263
0.143,0.022,-1.052,-8.423,-5.737,-5.981
0.138,0.018,-1.050,-8.423,-7.629,-4.944
0.133,0.017,-1.042,-7.690,-8.972,-4.089
0.136,0.019,-1.031,-6.226,-9.399,-3.296
0.138,0.023,-1.019,-3.784,-8.423,-2.441
0.136,0.028,-1.013,-1.526,-6.592,-1.282
0.130,0.037,-1.015,0.061,-4.944,-0.427
0.131,0.057,-1.014,1.587,-3.479,0.793
0.130,0.069,-1.006,2.747,-2.136,1.404
0.117,0.082,-1.005,3.540,-0.854,1.282
0.100,0.085,-1.003,3.967,-0.061,0.854
0.091,0.087,-1.002,4.211,-0.122,0.061
0.087,0.095,-1.001,4.028,-0.854,-0.916
0.092,0.093,-0.997,3.540,-1.831,-2.014
0.097,0.084,-0.993,3.357,-2.747,-4.089
0.106,0.067,-0.986,3.357,-3.296,-5.920
0.116,0.054,-0.974,3.540,-3.540,-8.179
0.125,0.041,-0.962,3.357,-3.784,-9.399
0.129,0.036,-0.964,2.319,-3.540,-8.972
0.129,0.034,-0.972,0.732,-3.540,-6.897
0.130,0.035,-0.975,-0.366,-3.906,-4.822
0.129,0.049,-0.972,-0.610,-4.089,-2.869
0.126,0.063,-0.963,-0.671,-3.845,-1.648
0.120,0.066,-0.953,-1.160,-2.991,-1.953
0.114,0.067,-0.961,-1.709,-1.465,-2.869
0.115,0.068,-0.971,-1.831,-0.366,-4.150
0.120,0.066,-0.982,-2.197,-0.061,-5.310
0.126,0.058,-0.990,-1.953,-0.366,-6.104
0.134,0.042,-0.992,-1.648,-1.282,-6.897
0.145,0.030,-0.989,-0.977,-2.319,-7.141
0.156,0.021,-0.981,0.305,-2.869,-6.592
0.165,0.018,-0.970,0.916,-3.113,-5.493
0.167,0.018,-0.964,0.916,-2.930,-4.211
0.167,0.019,-0.957,0.305,-2.319,-2.075
0.169,0.025,-0.961,-0.305,-0.793,0.244
0.167,0.037,-0.977,-1.770,1.099,2.136
0.156,0.043,-0.984,-2.319,2.747,3.296
0.139,0.043,-0.998,-2.319,3.845,3.723
0.128,0.048,-1.003,-1.160,4.089,3.357
0.128,0.057,-0.999,0.427,4.028,2.869
0.130,0.064,-0.999,1.465,3.906,1.770
0.130,0.058,-1.000,1.648,3.845,0.977
0.130,0.053,-0.999,1.709,3.723,0.488
0.129,0.054,-0.995,1.587,3.296,0.488
0.127,0.055,-0.998,0.366,2.869,0.549
0.129,0.054,-1.006,-0.854,2.380,0.732
0.129,0.056,-1.009,-2.014,1.892,0.977
0.126,0.055,-1.009,-2.380,1.404,1.282
0.126,0.058,-1.008,-2.441,1.038,1.465
0.126,0.065,-1.014,-2.075,0.854,1.526
0.122,0.067,-1.024,-1.587,0.671,1.038
0.117,0.065,-1.035,-1.404,0.427,0.488
0.114,0.066,-1.033,-1.038,-0.305,0.061

0.225,-0.163,-1.044,-0.366,4.944,-22.888
0.259,-0.110,-0.985,-3.052,8.911,-21.240
0.272,-0.045,-1.053,-0.977,7.874,-18.616
0.219,-0.095,-1.073,-0.122,4.883,-15.259
0.167,-0.093,-0.974,6.897,3.479,-12.268
0.152,-0.074,-0.820,16.296,7.812,-14.893
0.168,-0.065,-0.716,18.005,17.700,-21.423
0.203,-0.071,-0.802,7.080,28.748,-24.963
0.220,-0.052,-1.010,-9.399,32.654,-23.987
0.144,0.071,-1.156,-20.996,25.940,-23.682
0.043,0.196,-1.198,-25.208,12.146,-31.250
0.038,0.233,-1.158,-21.301,-1.038,-49.377
0.129,0.203,-1.083,-11.292,-7.812,-73.120
0.240,0.115,-1.013,2.197,-6.470,-93.567
0.332,-0.003,-0.979,16.724,1.709,-105.469
0.369,-0.073,-1.007,30.273,13.367,-109.314
0.394,0.040,-0.911,39.063,26.428,-107.788
0.431,0.203,-0.828,40.222,36.133,-108.154
0.393,0.313,-0.823,38.696,44.922,-120.178
0.276,0.196,-0.916,29.602,51.392,-144.592
0.220,-0.229,-1.106,9.277,50.476,-171.875
0.619,-0.079,-1.092,-5.615,41.016,-192.505
0.953,-0.279,-1.189,-13.672,28.381,-217.224
1.147,-0.706,-1.267,-28.564,16.479,-243.408
1.304,-0.926,-1.290,-37.354,6.104,-257.446
1.537,-1.017,-1.287,-39.795,0.366,-257.385
1.661,-1.160,-1.278,-51.514,-0.427,-244.324
1.655,-1.323,-1.320,-69.336,3.113,-216.248
1.632,-1.389,-1.419,-81.543,6.836,-173.584
1.545,-1.353,-1.527,-86.426,7.019,-125.916
1.409,-1.284,-1.588,-83.252,1.282,-81.787
1.243,-1.167,-1.562,-69.580,-6.897,-45.044
1.058,-1.070,-1.504,-48.645,-13.367,-16.113
0.890,-1.014,-1.387,-26.184,-14.771,8.118
0.720,-0.972,-1.202,-2.441,-10.193,33.203
0.542,-0.927,-0.986,17.334,-1.221,59.875
0.351,-0.887,-0.812,27.771,10.986,88.318
0.172,-0.875,-0.695,28.076,22.705,118.469
-0.018,-0.862,-0.600,21.667,30.640,150.818
-0.243,-0.821,-0.530,12.512,35.522,187.256
-0.491,-0.765,-0.536,1.282,38.635,226.501
-0.722,-0.720,-0.591,-8.972,41.687,266.174
-0.995,-0.592,-0.610,-14.099,47.363,306.519
-1.345,-0.346,-0.583,-17.090,57.495,339.966
-1.673,-0.064,-0.606,-29.175,71.411,357.117
-1.903,0.213,-0.686,-55.664,83.679,352.417
-2.106,0.518,-0.800,-84.900,89.417,321.716
-2.100,0.670,-0.908,-100.281,82.947,266.052
-1.937,0.636,-1.031,-108.459,62.805,196.228
-1.713,0.523,-1.132,-99.670,34.363,126.221
-1.487,0.392,-1.147,-75.684,6.348,68.787
-1.265,0.296,-1.086,-46.021,-13.245,28.992
-1.041,0.215,-0.979,-18.860,-22.888,3.235
-0.873,0.155,-0.896,-2.136,-21.057,-8.545
-0.766,0.107,-0.854,1.404,-11.047,-10.010
-0.706,0.077,-0.861,-1.160,-0.549,-7.263
-0.653,0.045,-0.917,-3.052,6.104,-7.263
-0.602,0.007,-0.962,-3.357,5.127,-13.123
-0.538,-0.036,-0.969,-3.113,-2.686,-25.757
-0.442,-0.091,-0.948,-2.014,-15.442,-42.664
-0.306,-0.176,-0.898,-0.305,-30.396,-59.937
-0.158,-0.256,-0.831,2.136,-43.579,-74.158
-0.036,-0.340,-0.756,4.089,-53.101,-82.031
0.056,-0.432,-0.687,4.211,-58.289,-82.825
0.137,-0.516,-0.645,2.747,-59.021,-77.515
0.219,-0.576,-0.632,0.793,-56.274,-67.383
0.283,-0.622,-0.653,-1.404,-50.964,-53.711
0.331,-0.650,-0.670,-3.723,-43.518,-37.842
0.301,-0.634,-0.771,-3.479,-33.875,-19.775
0.346,-0.558,-0.750,1.160,-27.527,-5.310
0.308,-0.497,-0.765,2.808,-21.973,6.226
0.258,-0.429,-0.784,2.502,-13.367,15.930
0.222,-0.349,-0.803,4.395,-5.371,20.142
0.189,-0.290,-0.830,5.920,2.136,18.738
0.162,-0.254,-0.867,6.958,8.301,13.672
0.154,-0.253,-0.916,6.287,12.512,6.714
0.161,-0.276,-0.966,5.127,14.160,0.366
0.177,-0.301,-1.008,5.371,13.123,-3.723
0.197,-0.338,-1.029,6.470,10.681,-5.249
0.218,-0.369,-1.047,6.653,8.301,-5.188
0.230,-0.399,-1.061,7.263,6.104,-4.089
0.228,-0.411,-1.063,8.545,4.578,-0.549
0.210,-0.398,-1.056,10.132,3.418,4.639
0.187,-0.374,-1.041,11.169,2.808,10.742
0.153,-0.338,-1.015,12.207,2.747,16.052
0.114,-0.298,-0.995,11.963,3.662,20.203
0.077,-0.257,-0.974,10.254,5.188,22.278
0.052,-0.216,-0.958,8.118,6.775,21.606
0.025,-0.193,-0.965,5.432,8.240,18.616
0.002,-0.191,-0.987,2.136,8.789,14.282
-0.002,-0.186,-1.010,-0.732,8.301,9.399
0.001,-0.191,-1.039,-2.197,6.714,4.333
0.004,-0.213,-1.053,-3.601,4.028,-1.038
0.011,-0.228,-1.055,-3.723,0.549,-5.066
0.020,-0.234,-1.050,-2.686,-2.563,-7.812
0.031,-0.249,-1.036,-2.563,-4.944,-9.827
0.049,-0.261,-1.024,-2.808,-6.592,-11.108
0.072,-0.266,-1.014,-1.770,-7.324,-11.902
0.086,-0.282,-1.004,-0.671,-7.690,-12.878
0.097,-0.306,-0.990,0.427,-7.446,-13.123
0.115,-0.319,-0.978,1.770,-6.836,-12.512
0.135,-0.320,-0.976,3.052,-5.737,-10.986
0.153,-0.318,-0.975,3.906,-4.517,-8.911
0.158,-0.313,-0.969,5.676,-3.662,-6.409
0.150,-0.303,-0.963,7.507,-2.502,-4.211
0.141,-0.294,-0.953,8.362,-1.831,-1.587
0.138,-0.279,-0.949,8.972,-0.793,0.305
0.130,-0.272,-0.946,8.240,-0.244,1.160
0.122,-0.261,-0.941,6.958,0.244,2.197
0.121,-0.245,-0.946,5.859,0.122,2.869
0.114,-0.243,-0.954,3.967,-0.305,3.174
0.110,-0.244,-0.971,1.648,-0.916,3.479
0.116,-0.240,-0.981,0.244,-2.136,3.174
0.125,-0.231,-0.987,-0.122,-2.808,2.014
0.127,-0.233,-0.993,0.061,-3.052,0.854
0.128,-0.242,-0.995,0.427,-2.808,-0.305
0.131,-0.250,-0.993,1.465,-2.686,-1.343
0.133,-0.252,-0.990,2.441,-2.319,-2.075
0.134,-0.253,-0.988,3.113,-1.953,-2.686
0.133,-0.257,-0.987,3.296,-1.526,-3.052
0.128,-0.254,-0.986,3.906,-1.343,-2.930
0.126,-0.247,-0.984,4.761,-1.587,-2.808
0.127,-0.243,-0.989,5.554,-1.770,-2.808
0.130,-0.246,-0.990,5.981,-2.014,-2.869
0.135,-0.250,-0.985,6.714,-2.319,-3.723
0.134,-0.253,-0.984,7.690,-2.075,-4.211
0.132,-0.258,-0.990,7.324,-1.892,-4.150
0.135,-0.256,-0.993,6.714,-1.404,-2.991
0.134,-0.250,-0.995,6.531,-1.648,-1.282
0.127,-0.245,-1.001,6.226,-2.258,-0.061
0.121,-0.239,-0.999,5.981,-2.869,0.671
0.118,-0.225,-1.005,6.287,-3.418,1.404
0.114,-0.226,-1.009,6.348,-3.662,1.160
0.113,-0.224,-1.003,6.836,-4.028,0.366
0.112,-0.221,-0.998,7.568,-3.967,-0.366
0.109,-0.224,-0.990,7.446,-3.967,-1.343
0.108,-0.227,-0.987,6.958,-4.211,-2.136
0.106,-0.227,-0.990,6.897,-4.639,-2.441
0.110,-0.225,-0.994,6.714,-5.371,-2.258
0.109,-0.223,-0.991,6.897,-6.348,-2.014
0.100,-0.216,-0.983,7.385,-7.080,-1.709
0.091,-0.197,-0.968,8.057,-7.690,-1.465
0.085,-0.177,-0.960,8.972,-7.935,-1.953
0.082,-0.165,-0.958,9.338,-7.751,-3.357
0.086,-0.175,-0.964,9.033,-7.629,-5.432
0.094,-0.194,-0.968,9.644,-7.812,-7.935
0.108,-0.213,-0.952,11.780,-8.423,-10.376
0.131,-0.220,-0.938,13.489,-8.545,-12.146
0.149,-0.234,-0.922,14.099,-7.629,-13.123

0.146,-0.320,-1.001,9.460,6.104,4.395
0.167,-0.332,-0.944,11.414,4.456,11.780
0.177,-0.265,-0.979,19.287,3.601,21.851
0.126,-0.245,-0.970,20.325,5.981,30.151
0.074,-0.202,-0.973,21.545,8.423,35.095
0.047,-0.150,-0.953,25.208,10.620,35.095
0.039,-0.115,-0.920,27.832,13.245,31.250
0.069,-0.076,-0.907,27.649,16.785,26.123
0.070,-0.066,-0.936,21.301,20.691,21.118
0.060,-0.097,-0.982,10.986,21.973,17.029
0.052,-0.091,-1.016,5.188,19.348,14.343
0.029,-0.057,-1.002,1.831,13.855,11.963
0.004,-0.057,-0.995,-1.526,9.338,7.996
0.007,-0.066,-1.030,-3.967,5.798,2.686
0.032,-0.082,-1.067,-5.432,1.892,-2.258
0.045,-0.104,-1.081,-5.615,-2.441,-5.066
0.028,-0.133,-1.071,-5.371,-6.897,-5.798
0.016,-0.160,-1.052,-4.517,-10.803,-5.188
0.018,-0.166,-1.027,-1.160,-13.794,-3.784
0.021,-0.157,-1.013,3.174,-15.442,-2.930
0.078,-0.099,-0.808,5.127,-15.503,-2.686
0.004,-0.130,-1.044,2.502,-14.465,-3.845
0.023,-0.124,-0.990,-0.977,-12.695,-4.089
0.045,-0.116,-0.983,-0.061,-13.000,-4.822
0.056,-0.106,-0.988,-1.221,-13.123,-5.371
0.067,-0.115,-0.987,-6.775,-13.428,-5.127
0.098,-0.121,-0.974,-12.756,-13.855,-3.845
0.125,-0.140,-0.964,-16.174,-13.794,-2.563
0.126,-0.157,-0.959,-16.174,-12.512,-1.526
0.079,-0.165,-0.929,-13.428,-10.071,-0.305
0.092,-0.224,-0.948,-10.193,-6.165,0.854
0.100,-0.209,-0.983,-11.414,-2.197,3.845
0.088,-0.180,-0.979,-10.986,-0.061,6.409
0.069,-0.159,-0.974,-5.981,0.977,6.287
0.055,-0.143,-1.001,-1.831,1.770,4.517
0.057,-0.135,-1.020,-0.671,2.441,2.258
0.068,-0.108,-1.007,-0.610,2.441,-0.244
0.090,-0.136,-1.005,-0.488,3.174,-3.784
0.117,-0.161,-1.014,1.282,4.333,-5.859
0.138,-0.164,-1.006,3.296,6.042,-6.897
0.156,-0.160,-0.993,4.883,8.240,-6.897
0.169,-0.155,-0.992,6.165,11.169,-6.409
0.179,-0.146,-0.983,6.409,14.038,-5.615
0.189,-0.137,-0.983,6.897,17.090,-5.005
0.199,-0.117,-1.006,6.958,19.775,-4.089
0.222,-0.092,-1.017,6.226,21.606,-3.296
0.252,-0.057,-1.020,5.554,22.949,-3.784
0.272,-0.040,-1.044,6.165,24.231,-5.615
0.276,-0.016,-1.050,5.798,25.208,-9.460
0.278,-0.004,-1.037,4.395,24.841,-15.381
0.294,-0.006,-1.025,2.136,23.804,-22.705
0.321,-0.020,-1.026,-1.221,22.278,-30.884
0.362,-0.042,-1.039,-7.141,20.386,-39.856
0.421,-0.095,-1.057,-13.367,18.127,-49.805
0.504,-0.170,-1.081,-18.494,15.930,-60.059
0.582,-0.231,-1.109,-21.118,14.404,-68.481
0.662,-0.258,-1.098,-20.691,13.000,-74.463
0.717,-0.266,-1.094,-19.470,14.099,-77.698
0.767,-0.237,-1.097,-17.822,17.151,-78.613
0.814,-0.215,-1.125,-17.761,21.729,-78.064
0.857,-0.196,-1.212,-22.156,25.574,-76.416
0.883,-0.206,-1.291,-30.090,24.597,-74.829
0.880,-0.221,-1.334,-39.185,16.907,-73.486
0.846,-0.242,-1.323,-46.448,4.333,-72.876
0.812,-0.271,-1.293,-51.514,-8.545,-74.097
0.807,-0.296,-1.247,-54.260,-18.921,-76.782
0.803,-0.339,-1.214,-55.054,-24.719,-80.322
0.784,-0.377,-1.179,-53.284,-25.146,-83.191
0.711,-0.448,-1.216,-49.988,-19.714,-83.130
0.650,-0.479,-1.215,-45.898,-15.076,-76.233
0.589,-0.465,-1.190,-39.001,-13.245,-64.514
0.505,-0.445,-1.141,-31.006,-10.864,-54.932
0.406,-0.458,-1.098,-22.522,-7.690,-47.852
0.294,-0.490,-1.118,-15.137,-3.723,-41.443
0.204,-0.518,-1.107,-5.066,-0.061,-31.921
0.124,-0.492,-1.089,9.033,4.761,-18.311
0.025,-0.420,-1.032,21.179,11.230,-4.639
-0.117,-0.371,-0.932,24.719,17.944,5.920
-0.279,-0.378,-0.845,15.137,22.766,12.878
-0.429,-0.427,-0.761,-8.667,24.048,16.785
-0.556,-0.473,-0.717,-41.199,22.034,20.752
-0.667,-0.520,-0.726,-72.327,17.517,27.527
-0.736,-0.560,-0.708,-99.670,12.024,40.649
-0.788,-0.560,-0.673,-127.686,9.949,60.791
-0.858,-0.536,-0.680,-159.180,13.977,83.740
-0.955,-0.526,-0.716,-191.162,21.912,103.333
-1.048,-0.522,-0.795,-218.323,30.823,117.126
-1.117,-0.512,-0.898,-235.474,37.476,125.061
-1.140,-0.471,-0.974,-240.051,41.321,127.930
-1.135,-0.396,-1.024,-233.826,42.480,125.977
-1.107,-0.332,-1.071,-221.924,41.748,118.958
-1.052,-0.294,-1.096,-205.933,39.673,107.422
-0.974,-0.270,-1.123,-184.814,36.499,92.407
-0.861,-0.256,-1.111,-160.034,31.677,76.050
-0.733,-0.242,-1.048,-134.155,25.452,60.181
-0.613,-0.233,-1.005,-108.826,18.982,46.143
-0.528,-0.265,-0.990,-88.013,12.451,34.424
-0.479,-0.327,-0.937,-71.899,4.211,25.635
-0.432,-0.373,-0.840,-55.786,-5.310,19.348
-0.388,-0.392,-0.735,-40.344,-14.771,14.221
-0.350,-0.410,-0.662,-31.006,-22.705,8.606
-0.311,-0.461,-0.605,-27.588,-28.442,2.136
-0.268,-0.516,-0.549,-25.452,-33.264,-4.822
-0.226,-0.568,-0.531,-21.240,-37.048,-10.559
-0.179,-0.621,-0.516,-14.404,-40.283,-14.832
-0.126,-0.655,-0.500,-3.845,-41.870,-16.174
-0.088,-0.669,-0.484,9.094,-40.894,-13.977
-0.075,-0.659,-0.469,20.447,-37.048,-9.338
-0.076,-0.628,-0.452,26.489,-31.250,-4.700
-0.090,-0.604,-0.453,26.855,-24.170,-1.709
-0.105,-0.593,-0.486,23.987,-17.578,-1.709
-0.101,-0.579,-0.536,19.592,-13.184,-4.700
-0.079,-0.581,-0.586,14.709,-11.841,-9.460
-0.049,-0.603,-0.617,9.521,-13.123,-16.113
-0.023,-0.634,-0.629,4.517,-16.479,-23.376
-0.004,-0.667,-0.630,0.183,-19.897,-29.724
0.017,-0.706,-0.650,-2.014,-22.339,-34.607
0.048,-0.757,-0.670,-1.282,-23.254,-37.048
0.088,-0.798,-0.679,1.892,-22.156,-36.377
0.121,-0.832,-0.671,5.737,-19.043,-33.875
0.148,-0.863,-0.649,10.498,-14.648,-29.602
0.169,-0.886,-0.633,15.503,-8.972,-23.560
0.170,-0.873,-0.636,17.578,-2.991,-15.015
0.152,-0.855,-0.645,15.381,1.770,-4.944
0.106,-0.823,-0.688,9.644,7.141,5.554
0.068,-0.801,-0.743,2.869,10.376,13.977
0.044,-0.770,-0.784,-2.014,10.742,18.555
0.019,-0.730,-0.823,-3.723,8.789,19.653
-0.001,-0.699,-0.837,-3.479,5.005,17.883
-0.023,-0.683,-0.835,-2.747,0.977,15.564
-0.040,-0.670,-0.828,-1.648,-1.648,12.085
-0.044,-0.664,-0.821,0.549,-3.052,7.812
-0.033,-0.658,-0.807,2.563,-3.235,2.930
-0.017,-0.661,-0.798,3.967,-2.686,-2.441
-0.003,-0.675,-0.794,4.883,-1.953,-7.324
0.018,-0.705,-0.776,4.944,-2.441,-11.047
0.028,-0.729,-0.780,4.700,-2.808,-13.367
0.045,-0.762,-0.796,3.967,-3.479,-13.611
0.070,-0.784,-0.798,4.089,-4.517,-12.146
0.101,-0.798,-0.791,5.432,-5.310,-9.155
0.112,-0.802,-0.787,7.874,-5.554,-5.676
0.123,-0.797,-0.764,10.620,-5.310,-0.122
0.110,-0.765,-0.748,12.573,-3.479,5.737
0.092,-0.729,-0.738,12.939,-0.366,10.376
0.064,-0.693,-0.739,12.695,3.296,13.428
0.032,-0.667,-0.747,11.169,6.287,14.893
0.011,-0.639,-0.762,9.094,7.751,14.465
0.002,-0.617,-0.782,7.446,7.812,12.329
0.000,-0.612,-0.804,5.432,6.042,8.240

0.258,-0.070,-1.368,-12.573,1.831,5.554
0.312,0.034,-1.215,-12.390,-2.075,11.353
0.251,0.123,-1.260,-4.761,-4.944,11.414
0.181,0.086,-1.240,4.395,-7.385,7.202
0.200,0.078,-1.116,20.569,-7.996,2.319
0.208,0.028,-0.945,37.415,-0.671,-2.075
0.223,-0.001,-0.841,49.194,15.625,-1.953
0.246,0.014,-0.888,54.504,35.767,2.869
0.251,0.040,-1.006,56.702,51.147,8.423
0.224,0.103,-1.176,57.617,55.664,11.230
0.193,0.170,-1.261,59.326,47.058,11.292
0.184,0.234,-1.220,63.477,30.518,6.470
0.212,0.241,-1.145,68.481,15.869,-2.991
0.280,0.215,-1.064,74.829,7.996,-12.878
0.353,0.180,-1.011,81.787,6.775,-20.264
0.378,0.130,-1.004,87.402,9.155,-22.461
0.396,0.107,-1.045,91.919,11.658,-20.020
0.297,0.089,-1.101,93.445,11.353,-15.137
0.281,0.055,-1.083,104.614,12.695,-9.155
0.351,0.120,-1.015,128.662,13.733,-3.174
0.409,0.166,-0.943,153.503,19.897,0.244
0.432,0.193,-0.919,172.485,32.532,0.854
0.410,0.262,-0.895,187.134,47.424,-2.136
0.389,0.338,-0.912,201.721,60.425,-9.827
0.381,0.445,-0.959,214.294,69.336,-21.423
0.361,0.556,-0.991,220.459,74.219,-34.363
0.338,0.623,-0.983,220.642,75.867,-48.157
0.330,0.651,-0.991,218.994,75.806,-61.462
0.348,0.645,-0.999,214.783,73.730,-72.632
0.389,0.633,-0.987,206.238,69.153,-79.895
0.427,0.639,-0.973,191.956,62.195,-82.458
0.449,0.645,-0.988,172.119,52.063,-79.895
0.449,0.675,-0.997,146.729,37.781,-72.510
0.432,0.676,-1.014,119.934,19.897,-59.448
0.412,0.660,-0.976,90.271,0.488,-41.321
0.381,0.605,-0.877,62.622,-13.123,-16.479
0.215,0.723,-1.028,46.387,-13.184,9.216
0.125,0.871,-0.998,31.677,-22.705,19.775
0.047,0.888,-0.916,27.039,-38.025,16.663
-0.029,0.829,-0.813,20.081,-44.739,12.146
-0.068,0.799,-0.780,13.550,-44.312,11.658
-0.038,0.796,-0.773,14.221,-36.621,16.174
-0.150,0.905,-0.905,27.283,-24.719,21.545
-0.187,0.901,-0.783,41.504,-23.376,23.193
-0.309,0.931,-0.731,43.701,-13.550,31.189
-0.407,0.986,-0.732,45.898,-3.784,33.813
-0.446,1.021,-0.723,44.800,2.686,28.992
-0.459,0.999,-0.729,39.124,5.432,17.273
-0.436,0.920,-0.723,30.029,3.113,1.526
-0.395,0.785,-0.697,19.714,-3.784,-14.160
-0.353,0.624,-0.657,10.376,-12.573,-25.879
-0.317,0.488,-0.606,0.488,-22.278,-28.931
-0.279,0.409,-0.547,-10.742,-29.236,-22.766
-0.242,0.373,-0.502,-19.592,-32.410,-10.193
-0.228,0.374,-0.464,-25.208,-31.372,6.470
-0.250,0.383,-0.430,-29.663,-26.733,25.208
-0.297,0.363,-0.386,-33.325,-18.982,43.274
-0.393,0.403,-0.449,-37.109,-7.996,61.646
-0.483,0.516,-0.530,-39.734,1.282,75.439
-0.555,0.588,-0.564,-43.640,4.639,79.285
-0.601,0.617,-0.562,-51.208,5.188,76.050
-0.613,0.622,-0.588,-58.411,4.456,68.298
-0.597,0.616,-0.633,-65.186,2.869,58.228
-0.560,0.601,-0.677,-69.702,-0.427,46.265
-0.512,0.570,-0.679,-71.411,-4.395,35.645
-0.465,0.550,-0.670,-70.923,-7.141,28.442
-0.421,0.538,-0.667,-66.895,-7.690,21.729
-0.386,0.506,-0.642,-62.012,-7.263,14.771
-0.367,0.483,-0.612,-59.692,-5.798,9.338
-0.351,0.479,-0.622,-58.655,-3.357,4.517
-0.338,0.475,-0.680,-61.157,-1.831,0.000
-0.316,0.454,-0.757,-65.613,-2.563,-4.517
-0.287,0.437,-0.826,-66.284,-5.676,-9.155
-0.257,0.423,-0.864,-58.960,-10.193,-14.221
-0.219,0.419,-0.849,-46.387,-14.343,-19.653
-0.173,0.414,-0.817,-32.104,-16.296,-24.719
-0.138,0.401,-0.778,-18.799,-15.381,-28.259
-0.112,0.385,-0.754,-7.629,-12.085,-30.090
-0.085,0.372,-0.737,-0.183,-7.812,-29.968
-0.055,0.372,-0.727,4.211,-3.784,-27.527
-0.020,0.380,-0.719,5.127,-0.305,-23.804
0.012,0.401,-0.722,3.052,2.625,-18.860
0.037,0.418,-0.760,-2.014,5.188,-13.062
0.043,0.414,-0.808,-8.057,6.042,-7.507
0.037,0.414,-0.834,-12.329,5.066,-2.563
0.029,0.433,-0.839,-12.390,3.296,2.319
0.016,0.452,-0.844,-10.681,2.380,5.676
0.002,0.465,-0.850,-9.338,2.075,7.935
-0.012,0.476,-0.847,-9.216,2.014,9.888
-0.030,0.486,-0.848,-9.399,2.136,11.963
-0.045,0.498,-0.841,-10.010,1.892,15.076
-0.062,0.526,-0.833,-10.437,1.831,18.372
-0.084,0.562,-0.836,-10.742,2.197,20.264
-0.100,0.591,-0.840,-11.169,3.052,19.775
-0.124,0.613,-0.858,-10.193,4.272,16.052
-0.135,0.625,-0.876,-8.850,5.859,9.705
-0.136,0.620,-0.900,-7.996,6.958,2.319
-0.126,0.589,-0.921,-6.958,7.019,-4.272
-0.105,0.552,-0.923,-5.920,5.554,-8.484
-0.080,0.536,-0.915,-5.127,3.845,-9.583
-0.068,0.533,-0.907,-5.310,2.808,-7.874
-0.065,0.542,-0.919,-7.202,2.502,-5.432
-0.062,0.544,-0.943,-8.118,2.380,-3.906
-0.059,0.543,-0.956,-6.897,1.648,-4.028
-0.061,0.532,-0.948,-3.723,0.244,-5.554
-0.057,0.510,-0.927,-1.099,-1.038,-7.812
-0.047,0.490,-0.910,-0.366,-2.197,-9.583
-0.029,0.481,-0.901,-1.831,-3.174,-9.216
-0.010,0.482,-0.888,-3.418,-4.333,-7.263
0.001,0.487,-0.867,-4.578,-5.554,-5.310
0.009,0.498,-0.829,-4.883,-6.165,-3.418
0.013,0.510,-0.800,-5.798,-5.554,-1.465
0.003,0.514,-0.795,-9.460,-3.784,-0.305
-0.015,0.512,-0.818,-15.198,-2.075,0.488
-0.028,0.506,-0.854,-20.813,-1.404,0.610
-0.022,0.502,-0.890,-24.963,-1.648,0.366
-0.005,0.499,-0.918,-26.062,-2.625,-0.671
0.010,0.494,-0.934,-24.780,-3.906,-2.075
0.021,0.487,-0.930,-22.583,-4.761,-3.540
0.019,0.480,-0.941,-18.921,-5.127,-4.578
0.008,0.464,-0.962,-16.541,-5.432,-4.761
-0.001,0.454,-0.970,-13.733,-6.226,-3.113
-0.009,0.469,-0.960,-9.644,-6.958,-0.244
-0.012,0.501,-0.929,-5.249,-6.958,2.380
-0.018,0.527,-0.902,-1.221,-6.165,4.028
-0.028,0.551,-0.874,1.831,-4.700,4.944
-0.040,0.564,-0.854,2.441,-3.235,3.723
-0.052,0.565,-0.848,0.854,-2.014,0.793
-0.062,0.556,-0.858,-3.235,-1.587,-2.747
-0.057,0.542,-0.883,-9.216,-2.258,-6.104
-0.046,0.515,-0.909,-13.794,-4.333,-9.094
-0.036,0.486,-0.917,-16.235,-7.141,-11.414
-0.024,0.463,-0.902,-16.052,-10.132,-12.390
-0.016,0.446,-0.889,-15.381,-11.902,-12.512
-0.012,0.430,-0.873,-14.099,-12.451,-11.780
-0.014,0.420,-0.849,-12.756,-12.085,-10.132
-0.024,0.414,-0.845,-11.963,-10.742,-7.996
-0.038,0.408,-0.854,-11.902,-9.277,-5.981
-0.050,0.388,-0.849,-11.719,-8.301,-4.150
-0.068,0.372,-0.844,-10.193,-7.385,-1.465
-0.087,0.365,-0.827,-9.216,-6.714,2.075
-0.106,0.366,-0.804,-8.667,-5.798,5.554
-0.130,0.368,-0.784,-8.423,-4.883,9.277
-0.156,0.376,-0.769,-9.766,-4.089,13.123
-0.175,0.383,-0.759,-12.573,-3.662,16.418
-0.180,0.411,-0.739,-16.174,-4.028,18.677
-0.163,0.465,-0.731,-21.362,-4.150,18.616
-0.146,0.494,-0.758,-26.917,-4.150,14.954
-0.127,0.486,-0.791,-29.419,-4.395,7.874

0.097,0.026,-1.068,23.743,28.076,34.973
0.230,0.027,-1.079,9.399,31.128,29.480
0.418,0.109,-1.093,-0.549,35.278,20.081
0.570,0.225,-1.134,9.521,49.622,13.916
0.573,0.238,-1.262,18.433,60.120,19.287
0.591,0.334,-1.324,36.072,62.927,24.231
0.715,0.477,-1.339,68.848,65.369,13.672
0.946,0.484,-1.387,93.811,73.059,-6.531
1.172,0.371,-1.463,106.445,81.482,-23.987
1.354,0.266,-1.609,111.633,86.975,-35.828
1.483,0.159,-1.871,105.286,83.435,-43.213
1.573,0.042,-2.094,90.637,63.721,-50.293
1.617,-0.044,-2.196,76.965,31.433,-59.875
1.661,-0.172,-2.225,65.613,-3.784,-70.190
1.668,-0.420,-2.259,60.974,-34.058,-74.829
1.612,-0.661,-2.275,69.946,-59.692,-63.354
1.396,-0.746,-2.145,87.585,-82.092,-31.250
0.917,-0.596,-1.859,107.910,-95.337,14.832
0.402,-0.324,-1.440,121.033,-92.712,59.265
0.118,-0.078,-1.185,109.619,-71.960,83.313
-0.349,0.146,-0.965,93.445,-40.283,88.135
-0.900,0.094,-0.769,92.346,-12.512,76.904
-1.139,-0.036,-0.415,81.665,5.249,59.143
-1.187,0.038,-0.168,50.110,16.174,42.847
-1.420,-0.050,-0.119,7.507,24.597,25.452
-1.740,0.001,-0.115,-26.672,29.663,19.409
-1.915,0.043,-0.331,-29.724,30.945,29.541
-1.855,0.194,-0.426,-32.043,25.452,50.903
-1.831,0.367,-0.470,-45.349,18.066,67.444
-1.842,0.366,-0.493,-52.124,14.038,65.491
-1.775,0.376,-0.551,-50.293,17.212,51.331
-1.598,0.328,-0.678,-43.701,23.193,30.029
-1.459,0.249,-0.786,-36.743,26.001,6.592
-1.331,0.164,-0.918,-32.349,24.414,-10.193
-1.131,0.111,-0.966,-30.823,15.503,-18.555
-0.979,0.061,-0.992,-25.696,-1.953,-23.804
-0.825,0.028,-0.928,-21.423,-16.541,-28.992
-0.636,0.039,-0.821,-11.047,-26.794,-34.485
-0.460,0.056,-0.714,0.732,-30.884,-40.955
-0.347,0.036,-0.612,7.874,-29.297,-46.143
-0.284,0.014,-0.550,7.996,-23.682,-47.668
-0.243,-0.011,-0.544,2.258,-16.907,-45.776
-0.220,-0.064,-0.572,-8.301,-11.292,-43.152
-0.211,-0.122,-0.641,-19.836,-8.789,-41.565
-0.191,-0.166,-0.742,-29.541,-9.216,-40.710
-0.139,-0.194,-0.844,-35.889,-12.390,-39.063
-0.065,-0.208,-0.928,-39.368,-17.944,-35.583
-0.009,-0.205,-0.980,-38.757,-23.315,-30.273
0.007,-0.198,-1.001,-35.217,-27.588,-22.766
0.002,-0.183,-1.005,-29.541,-30.090,-13.916
-0.001,-0.150,-1.004,-20.874,-29.541,-5.554
-0.005,-0.100,-0.985,-9.766,-26.306,1.648
-0.025,-0.044,-0.941,2.197,-20.081,6.958
-0.049,0.023,-0.884,12.207,-11.841,8.362
-0.073,0.077,-0.876,17.944,-2.502,6.409
-0.078,0.092,-0.886,16.724,6.348,2.197
-0.070,0.088,-0.942,12.390,12.329,-2.930
-0.060,0.068,-0.982,7.812,14.099,-6.531
-0.058,0.055,-1.012,3.906,12.146,-7.812
-0.051,0.032,-1.044,-0.488,7.751,-7.019
-0.037,0.014,-1.067,-4.517,2.441,-5.066
-0.036,0.017,-1.077,-8.179,-2.808,-2.258
-0.047,0.018,-1.075,-10.681,-7.202,0.427
-0.067,0.026,-1.076,-11.597,-10.132,2.563
-0.089,0.034,-1.072,-11.597,-11.841,2.869
-0.100,0.036,-1.054,-10.864,-12.451,1.648
-0.101,0.028,-1.038,-9.888,-11.841,-0.977
-0.092,0.014,-1.047,-9.949,-10.620,-3.784
-0.069,0.002,-1.076,-10.498,-9.644,-5.188
-0.046,-0.010,-1.092,-9.827,-9.827,-5.310
-0.030,-0.023,-1.078,-7.080,-10.803,-4.578
-0.034,-0.014,-1.039,-2.808,-11.780,-2.441
-0.053,-0.001,-0.985,0.671,-11.169,0.305
-0.075,0.010,-0.960,2.319,-8.545,1.770
-0.082,0.011,-0.963,2.808,-5.127,1.587
-0.083,0.009,-0.961,3.723,-2.808,0.610
-0.085,0.010,-0.958,3.845,-2.075,-0.183
-0.082,0.007,-0.943,2.930,-1.892,-0.061
-0.090,0.006,-0.944,1.465,-1.099,0.549
-0.091,0.014,-0.958,-0.183,0.122,0.977
-0.080,0.030,-0.967,-0.244,0.916,1.282
-0.069,0.036,-0.962,0.549,1.099,1.282
-0.060,0.040,-0.952,0.854,1.160,1.648
-0.066,0.048,-0.956,0.183,1.282,2.869
-0.076,0.051,-0.966,-1.892,1.221,4.333
-0.084,0.052,-0.969,-4.028,0.488,4.822
-0.082,0.058,-0.958,-5.432,-0.610,4.395
-0.072,0.066,-0.959,-7.507,-1.038,2.747
-0.071,0.047,-0.983,-10.681,-0.793,0.854
-0.063,0.027,-1.010,-13.428,-0.610,-0.732
-0.054,0.023,-1.028,-14.160,-1.099,-1.282
-0.044,0.025,-1.032,-13.855,-1.526,-1.648
-0.044,0.017,-1.031,-12.329,-1.892,-1.343
-0.043,0.009,-1.029,-11.169,-2.319,-0.916
-0.040,0.007,-1.024,-10.010,-2.380,-0.488
-0.037,0.006,-1.016,-8.362,-2.563,0.122
-0.033,0.003,-1.004,-7.324,-2.563,0.305
-0.028,0.001,-1.000,-6.775,-2.319,0.244
-0.023,-0.011,-0.998,-6.042,-1.953,0.671
-0.022,-0.019,-0.999,-5.188,-1.282,1.648
-0.030,-0.016,-1.008,-4.456,-0.549,3.723
-0.034,-0.002,-1.022,-5.249,-0.122,6.165
-0.031,0.018,-1.029,-5.676,0.244,8.118
-0.039,0.035,-1.034,-5.066,0.916,9.155
-0.057,0.038,-1.041,-5.127,1.770,8.545
-0.069,0.039,-1.043,-5.066,1.831,7.568
-0.075,0.040,-1.055,-5.066,1.526,6.836
-0.075,0.036,-1.059,-4.456,0.793,6.165
-0.077,0.037,-1.049,-3.052,-0.244,5.676
-0.087,0.044,-1.033,-1.160,-0.366,5.615
-0.094,0.050,-1.025,0.122,-0.122,4.822
-0.089,0.046,-1.033,0.305,0.854,2.808
-0.084,0.034,-1.043,0.793,1.282,-0.061
-0.076,0.025,-1.038,1.282,1.038,-2.625
-0.067,0.012,-1.032,1.953,0.366,-4.639
-0.055,-0.000,-1.025,3.235,0.427,-5.310
-0.045,-0.008,-1.016,4.089,0.549,-5.737
-0.044,-0.012,-1.010,3.479,0.305,-5.554
-0.047,-0.015,-1.004,1.892,-0.366,-4.822
-0.049,-0.014,-1.000,-1.038,-1.526,-3.906
-0.051,-0.012,-1.001,-3.357,-2.808,-2.686
-0.050,-0.008,-1.004,-5.188,-3.540,-1.465
-0.048,0.002,-1.018,-6.287,-3.540,-1.099
-0.048,0.003,-1.037,-7.141,-3.296,-1.526
-0.050,-0.005,-1.056,-6.775,-3.235,-2.502
-0.048,-0.011,-1.057,-5.127,-3.357,-3.845
-0.043,-0.020,-1.051,-2.075,-3.601,-4.761
-0.043,-0.028,-1.039,0.916,-3.479,-5.066
-0.042,-0.030,-1.027,2.808,-2.930,-4.822
-0.040,-0.033,-1.022,3.235,-2.502,-4.089
-0.037,-0.032,-1.016,3.479,-2.380,-2.930
-0.032,-0.019,-1.003,3.052,-2.625,-1.648
-0.042,-0.008,-0.997,1.892,-2.625,-0.122
-0.050,-0.016,-1.004,-0.610,-2.197,0.610
-0.047,-0.027,-1.020,-2.502,-2.075,0.854
-0.042,-0.030,-1.027,-2.136,-2.563,1.465
-0.042,-0.021,-1.020,-0.854,-2.869,2.258
-0.045,-0.017,-1.012,0.000,-2.625,3.052
-0.044,-0.016,-1.003,0.488,-1.892,3.601
-0.040,-0.011,-0.998,0.977,-1.221,3.479
-0.040,-0.008,-0.998,1.648,-0.671,3.174
-0.036,-0.005,-0.999,1.648,-0.183,3.052
-0.037,-0.008,-1.000,1.099,0.183,2.869
-0.040,-0.016,-1.007,0.244,0.488,3.113
-0.034,-0.017,-1.017,-0.488,0.366,2.991
-0.029,-0.016,-1.027,-0.671,0.183,2.991
-0.033,-0.012,-1.032,-0.671,-0.305,3.540
-0.040,-0.000,-1.040,-0.977,-0.854,4.639
-0.048,0.013,-1.040,-1.160,-1.465,5.310

0.291,-0.496,-1.065,-7.812,-30.762,26.306
0.415,-0.406,-0.845,-5.371,-23.010,33.630
0.452,-0.307,-0.889,-6.287,-9.460,36.255
0.551,-0.268,-0.975,-20.203,0.305,33.203
0.640,-0.489,-1.022,-33.752,1.526,25.757
0.709,-0.486,-1.065,-44.434,-2.930,22.705
0.780,-0.480,-1.077,-54.138,-11.353,20.386
0.809,-0.460,-1.124,-68.237,-22.522,15.991
0.859,-0.397,-1.184,-81.360,-36.072,9.216
0.937,-0.369,-1.221,-90.637,-50.415,-1.343
1.045,-0.450,-1.252,-95.398,-63.232,-13.428
1.134,-0.576,-1.153,-96.680,-73.914,-22.339
1.123,-0.534,-0.949,-97.900,-79.346,-25.085
1.026,-0.359,-0.798,-110.107,-76.904,-28.442
0.974,-0.311,-0.750,-132.324,-71.899,-43.457
1.006,-0.470,-0.764,-155.212,-67.749,-67.017
1.051,-0.665,-0.734,-170.044,-64.392,-82.825
0.938,-0.829,-0.795,-172.607,-58.044,-82.153
0.632,-1.022,-0.906,-165.466,-50.476,-67.261
0.405,-1.212,-0.837,-139.954,-45.593,-40.222
0.379,-0.999,-0.666,-96.497,-43.579,-6.348
0.327,-0.814,-0.559,-64.880,-38.574,17.822
0.101,-0.754,-0.483,-63.416,-31.250,27.466
-0.063,-0.609,-0.361,-89.966,-23.682,27.344
-0.154,-0.576,-0.410,-120.728,-15.442,20.569
-0.187,-0.679,-0.550,-147.766,-9.705,12.024
-0.245,-0.724,-0.629,-159.973,-8.606,9.521
-0.374,-0.674,-0.693,-156.555,-9.277,12.695
-0.458,-0.781,-0.717,-150.513,-10.254,18.433
-0.570,-0.816,-0.697,-135.986,-11.963,27.649
-0.679,-0.887,-0.649,-113.953,-13.672,37.292
-0.758,-0.974,-0.572,-90.942,-14.526,44.983
-0.845,-1.020,-0.534,-61.157,-12.146,49.377
-0.858,-0.965,-0.570,-36.377,-5.859,50.171
-0.802,-0.858,-0.607,-30.945,3.845,46.570
-0.773,-0.852,-0.644,-39.368,15.869,35.889
-0.764,-0.889,-0.683,-43.091,27.527,20.813
-0.710,-0.901,-0.727,-33.264,36.316,5.859
-0.609,-0.865,-0.753,-16.052,41.626,-5.493
-0.499,-0.813,-0.749,2.014,43.884,-13.428
-0.431,-0.790,-0.737,17.456,43.579,-19.226
-0.359,-0.766,-0.710,29.724,40.955,-22.156
-0.307,-0.756,-0.679,40.771,36.621,-22.400
-0.286,-0.785,-0.643,49.133,31.189,-20.935
-0.270,-0.826,-0.596,54.321,24.963,-17.883
-0.224,-0.842,-0.544,58.899,18.799,-14.709
-0.157,-0.852,-0.484,63.354,13.184,-13.184
-0.107,-0.860,-0.448,68.054,8.667,-13.672
-0.070,-0.864,-0.425,70.496,5.188,-13.367
-0.036,-0.845,-0.383,66.589,2.258,-11.475
-0.009,-0.824,-0.343,57.190,0.610,-8.728
0.011,-0.804,-0.318,44.983,-0.366,-5.737
0.022,-0.781,-0.327,33.569,-0.793,-3.418
0.036,-0.768,-0.364,22.156,-2.014,-0.854
0.060,-0.773,-0.406,13.184,-5.127,1.587
0.089,-0.767,-0.436,10.315,-9.399,2.747
0.099,-0.760,-0.445,14.465,-14.282,3.113
0.108,-0.745,-0.443,21.423,-18.127,3.235
0.130,-0.720,-0.449,25.513,-19.592,2.747
0.152,-0.705,-0.452,25.879,-18.982,2.014
0.169,-0.686,-0.453,23.437,-16.052,-0.305
0.180,-0.699,-0.462,18.188,-12.024,-3.662
0.191,-0.724,-0.462,11.963,-8.179,-7.507
0.190,-0.758,-0.478,6.958,-4.639,-11.475
0.192,-0.776,-0.506,2.441,-1.831,-14.099
0.210,-0.799,-0.545,-3.357,-0.244,-15.076
0.221,-0.854,-0.579,-9.827,0.000,-15.503
0.222,-0.907,-0.585,-12.268,-0.793,-15.137
0.226,-0.927,-0.603,-9.155,-0.916,-14.038
0.241,-0.929,-0.616,-5.737,-0.122,-11.902
0.246,-0.936,-0.629,-6.592,1.709,-8.606
0.238,-0.950,-0.649,-8.911,4.211,-4.395
0.224,-0.942,-0.684,-11.475,6.714,1.038
0.211,-0.919,-0.717,-13.916,7.812,7.629
0.194,-0.896,-0.736,-15.564,7.141,13.245
0.166,-0.876,-0.744,-15.930,5.066,17.334
0.140,-0.853,-0.747,-15.076,1.953,19.714
0.129,-0.833,-0.738,-13.062,-1.099,20.752
0.124,-0.825,-0.724,-10.864,-3.662,20.020
0.124,-0.822,-0.709,-7.446,-5.310,17.883
0.129,-0.815,-0.677,-3.540,-5.859,15.381
0.135,-0.794,-0.652,-1.465,-5.066,12.634
0.141,-0.787,-0.645,-0.488,-3.052,10.071
0.143,-0.787,-0.648,-1.038,-0.793,7.568
0.146,-0.792,-0.654,-1.099,0.549,6.042
0.157,-0.789,-0.657,0.000,0.916,4.944
0.167,-0.770,-0.666,2.686,0.549,4.028
0.172,-0.761,-0.672,3.601,0.122,2.991
0.169,-0.774,-0.660,3.906,-0.793,2.136
0.156,-0.787,-0.631,5.188,-1.648,0.977
0.150,-0.780,-0.604,6.836,-1.587,0.427
0.170,-0.750,-0.597,6.470,-0.122,-0.305
0.171,-0.739,-0.607,3.113,2.380,-1.709
0.156,-0.752,-0.624,-2.991,4.578,-3.357
0.149,-0.766,-0.642,-6.958,4.517,-4.211
0.148,-0.763,-0.665,-7.141,2.563,-4.761
0.149,-0.767,-0.675,-6.836,-0.671,-4.944
0.155,-0.786,-0.659,-6.775,-4.517,-5.005
0.159,-0.790,-0.639,-5.676,-7.629,-4.944
0.166,-0.788,-0.622,-4.395,-9.216,-4.211
0.164,-0.785,-0.604,-3.479,-9.460,-2.563
0.165,-0.778,-0.584,-2.136,-8.606,-0.549
0.151,-0.758,-0.581,0.183,-6.775,1.587
0.142,-0.754,-0.584,0.183,-5.066,3.601
0.137,-0.756,-0.583,0.305,-3.784,5.066
0.131,-0.749,-0.582,3.479,-3.113,5.798
0.122,-0.736,-0.578,6.348,-2.136,5.493
0.118,-0.734,-0.557,7.080,-1.343,4.578
0.112,-0.736,-0.559,6.897,-0.122,2.686
0.114,-0.732,-0.566,6.348,1.282,0.671
0.118,-0.739,-0.574,4.822,2.014,-1.709
0.120,-0.758,-0.578,4.333,1.831,-3.662
0.124,-0.770,-0.575,4.456,1.160,-4.761
0.127,-0.771,-0.577,4.822,0.061,-5.188
0.134,-0.777,-0.582,4.089,-1.038,-5.371
0.142,-0.793,-0.583,3.113,-2.625,-5.249
0.150,-0.812,-0.566,3.540,-3.540,-4.639
0.157,-0.821,-0.552,5.127,-3.845,-3.174
0.165,-0.817,-0.545,6.042,-2.869,-1.892
0.164,-0.812,-0.549,4.761,-0.977,-0.732
0.160,-0.812,-0.563,1.831,1.160,0.244
0.160,-0.821,-0.574,-1.770,2.747,0.488
0.151,-0.829,-0.596,-3.357,3.296,0.610
0.145,-0.830,-0.613,-3.845,2.991,0.366
0.148,-0.829,-0.630,-3.845,1.648,0.183
0.156,-0.820,-0.637,-3.296,0.000,-0.061
0.160,-0.816,-0.635,-2.563,-1.038,-0.916
0.158,-0.816,-0.630,-1.648,-1.648,-2.014
0.158,-0.817,-0.632,-0.366,-1.648,-2.747
0.162,-0.823,-0.623,0.244,-1.038,-3.296
0.164,-0.834,-0.602,0.366,-0.061,-3.845
0.175,-0.838,-0.598,1.221,1.160,-4.272
0.189,-0.829,-0.603,1.831,2.930,-4.456
0.193,-0.825,-0.615,-0.549,4.395,-3.906
0.189,-0.833,-0.626,-3.784,5.371,-2.563
0.175,-0.838,-0.646,-5.798,5.188,-1.221
0.173,-0.829,-0.661,-6.592,4.089,0.183
0.181,-0.828,-0.667,-7.080,2.258,0.854
0.185,-0.833,-0.672,-5.981,0.305,0.427
0.186,-0.833,-0.669,-3.418,-0.977,0.244
0.183,-0.829,-0.660,-1.404,-1.892,0.488
0.177,-0.825,-0.654,-0.366,-2.136,1.160
0.169,-0.822,-0.644,-0.183,-1.648,2.136
0.167,-0.821,-0.639,-0.427,-1.099,2.869
0.167,-0.808,-0.642,-0.305,-0.427,2.991
0.166,-0.801,-0.646,-0.671,-0.061,3.174
0.161,-0.796,-0.640,-1.404,-0.366,2.869
0.151,-0.785,-0.646,-1.282,-0.793,2.319
0.151,-0.772,-0.651,-1.282,-1.404,2.075

0.147,0.090,-0.994,-24.841,31.433,-3.235
0.210,0.036,-1.083,-31.006,44.006,-2.747
0.365,0.154,-1.219,-23.682,44.434,2.686
0.336,0.154,-1.277,-15.808,37.231,5.676
0.338,0.207,-1.222,0.427,30.212,3.235
0.402,0.239,-1.152,18.494,29.724,-6.104
0.495,0.204,-1.185,32.837,36.865,-21.729
0.642,0.203,-1.328,45.898,45.349,-37.598
0.794,0.121,-1.571,55.664,48.828,-53.345
0.956,-0.024,-1.757,63.232,42.542,-67.566
1.044,-0.008,-1.782,70.618,25.757,-75.806
1.032,0.048,-1.743,74.585,5.676,-80.505
0.966,0.006,-1.757,81.360,-9.460,-87.524
0.976,-0.136,-1.752,103.638,-21.851,-95.947
0.964,-0.365,-1.686,138.977,-33.813,-99.121
0.919,-0.494,-1.564,180.115,-44.434,-88.013
0.773,-0.454,-1.408,216.675,-52.368,-61.279
0.692,-0.243,-1.188,236.450,-58.716,-26.672
0.030,0.260,-1.030,223.572,-59.875,3.784
-0.034,0.078,-0.804,179.077,-58.167,21.057
0.107,-0.174,-0.907,171.082,-52.185,34.546
0.204,0.030,-1.001,207.153,-53.711,47.241
0.165,0.307,-0.899,218.872,-67.688,51.697
0.041,0.408,-0.682,181.274,-81.726,46.387
-0.142,0.276,-0.489,130.981,-86.853,37.903
-0.398,0.066,-0.364,116.638,-79.407,35.095
-0.578,0.132,-0.403,133.423,-62.073,46.143
-0.673,0.350,-0.368,124.756,-42.480,68.359
-0.717,0.573,-0.370,99.487,-20.203,92.896
-0.765,0.660,-0.436,75.806,2.808,113.892
-0.958,0.791,-0.596,53.833,23.071,133.301
-1.005,0.921,-0.537,39.124,31.433,146.118
-1.129,1.081,-0.607,30.334,34.973,144.226
-1.109,1.081,-0.599,14.221,31.555,125.000
-1.087,1.007,-0.672,-6.226,30.151,102.234
-1.013,0.935,-0.730,-16.968,25.635,75.989
-0.923,0.880,-0.735,-14.526,17.639,49.316
-0.811,0.830,-0.693,-6.653,8.911,24.170
-0.700,0.784,-0.644,0.671,2.075,2.075
-0.597,0.714,-0.598,1.343,-1.770,-15.076
-0.498,0.624,-0.574,-4.150,-2.930,-27.527
-0.409,0.535,-0.583,-13.916,-3.052,-34.546
-0.345,0.450,-0.608,-26.367,-3.479,-36.438
-0.304,0.398,-0.628,-37.720,-4.761,-35.095
-0.272,0.383,-0.637,-45.044,-6.165,-32.166
-0.250,0.358,-0.655,-51.636,-7.141,-29.602
-0.235,0.317,-0.658,-58.105,-7.385,-28.198
-0.227,0.302,-0.659,-60.120,-6.042,-26.306
-0.205,0.316,-0.664,-58.960,-3.540,-25.024
-0.187,0.341,-0.672,-58.350,-0.488,-25.024
-0.181,0.367,-0.699,-59.082,3.174,-26.733
-0.172,0.378,-0.738,-61.401,5.981,-29.663
-0.152,0.371,-0.768,-62.012,6.958,-32.959
-0.119,0.362,-0.797,-59.570,6.714,-35.828
-0.076,0.360,-0.817,-56.335,5.859,-37.537
-0.032,0.351,-0.837,-52.734,5.127,-37.903
0.008,0.328,-0.859,-49.133,4.639,-36.743
0.042,0.293,-0.871,-44.312,5.310,-33.936
0.054,0.261,-0.870,-38.513,6.653,-28.503
0.051,0.262,-0.858,-32.593,8.911,-20.569
0.039,0.279,-0.852,-28.931,12.085,-12.573
0.025,0.296,-0.864,-27.710,15.442,-5.554
0.007,0.315,-0.891,-27.161,17.822,0.000
-0.008,0.342,-0.913,-26.794,18.616,4.517
-0.020,0.374,-0.924,-25.940,18.433,7.568
-0.035,0.407,-0.942,-24.658,17.700,9.399
-0.047,0.420,-0.956,-24.780,16.235,10.193
-0.055,0.432,-0.972,-23.865,14.099,11.169
-0.066,0.448,-0.980,-21.484,11.719,12.512
-0.085,0.468,-0.982,-18.066,9.705,14.160
-0.101,0.478,-0.983,-14.099,8.789,15.198
-0.112,0.481,-0.980,-10.498,8.118,14.709
-0.126,0.482,-0.972,-6.714,7.874,12.390
-0.135,0.484,-0.974,-3.723,8.362,9.094
-0.134,0.474,-0.987,-2.502,8.789,4.883
-0.123,0.452,-1.002,-1.465,8.057,0.366
-0.103,0.428,-0.999,0.793,6.287,-3.357
-0.079,0.406,-0.981,3.723,3.540,-5.310
-0.066,0.392,-0.950,6.042,1.648,-5.676
-0.061,0.383,-0.934,6.714,1.160,-5.127
-0.066,0.378,-0.934,5.676,1.160,-3.540
-0.077,0.389,-0.936,4.089,0.977,-0.916
-0.086,0.406,-0.935,3.296,0.000,1.831
-0.092,0.416,-0.931,1.465,-1.160,3.845
-0.100,0.429,-0.918,0.427,-1.770,4.700
-0.113,0.446,-0.919,0.305,-1.465,4.150
-0.121,0.445,-0.925,-0.610,-0.610,2.258
-0.119,0.441,-0.934,-0.793,0.122,0.000
-0.115,0.437,-0.944,-0.549,0.366,-2.747
-0.103,0.422,-0.951,-0.610,-0.122,-5.310
-0.087,0.399,-0.956,-0.061,-1.038,-7.629
-0.072,0.375,-0.941,0.732,-2.380,-9.521
-0.062,0.369,-0.924,2.014,-3.296,-10.376
-0.053,0.368,-0.915,1.831,-3.540,-9.827
-0.046,0.355,-0.916,-0.671,-3.662,-8.484
-0.045,0.349,-0.925,-2.258,-4.089,-6.531
-0.041,0.360,-0.922,-2.380,-4.944,-4.639
-0.042,0.366,-0.912,-2.502,-5.432,-2.441
-0.046,0.378,-0.906,-2.686,-5.371,-0.366
-0.053,0.395,-0.905,-3.052,-4.639,1.770
-0.056,0.404,-0.907,-3.662,-3.357,3.113
-0.063,0.406,-0.914,-3.296,-1.282,3.601
-0.071,0.408,-0.924,-2.563,0.977,3.479
-0.073,0.415,-0.934,-1.282,2.869,3.052
-0.074,0.425,-0.937,0.549,3.906,2.075
-0.077,0.432,-0.939,2.258,4.089,1.282
-0.073,0.441,-0.939,2.502,3.601,0.549
-0.066,0.445,-0.941,1.404,2.563,0.305
-0.063,0.440,-0.945,-0.793,0.854,-0.366
-0.062,0.429,-0.942,-2.869,-1.099,-1.526
-0.060,0.425,-0.931,-3.235,-2.625,-2.075
-0.056,0.424,-0.923,-3.296,-3.235,-2.563
-0.048,0.418,-0.926,-4.333,-2.991,-3.418
-0.040,0.412,-0.932,-4.578,-2.563,-3.845
-0.030,0.412,-0.939,-4.883,-2.563,-3.662
-0.030,0.409,-0.934,-4.700,-2.869,-2.930
-0.036,0.408,-0.933,-4.517,-3.174,-1.648
-0.036,0.411,-0.935,-5.310,-3.174,-0.061
-0.040,0.414,-0.941,-5.310,-2.930,1.343
-0.047,0.418,-0.947,-5.066,-2.258,1.892
-0.052,0.418,-0.953,-4.517,-2.014,1.587
-0.051,0.417,-0.962,-4.333,-2.380,0.488
-0.047,0.413,-0.965,-3.174,-3.235,-0.427
-0.044,0.411,-0.958,-1.038,-4.333,-0.916
-0.045,0.416,-0.942,1.770,-5.127,-0.732
-0.045,0.424,-0.925,3.479,-5.249,-0.061
-0.048,0.431,-0.908,4.333,-4.639,0.244
-0.052,0.439,-0.900,4.517,-3.601,0.488
-0.053,0.439,-0.894,4.517,-2.747,0.061
-0.054,0.438,-0.891,4.089,-2.075,-0.671
-0.051,0.436,-0.889,3.052,-1.648,-1.770
-0.044,0.430,-0.896,1.282,-1.343,-3.052
-0.040,0.416,-0.913,-1.709,-1.709,-4.333
-0.035,0.406,-0.925,-4.456,-2.930,-4.883
-0.031,0.400,-0.929,-5.859,-4.639,-4.944
-0.029,0.398,-0.928,-6.592,-6.104,-4.761
-0.032,0.399,-0.925,-7.385,-6.958,-3.967
-0.036,0.402,-0.928,-8.179,-7.324,-2.808
-0.034,0.406,-0.932,-8.301,-7.019,-1.709
-0.033,0.412,-0.938,-6.653,-6.287,-0.916
-0.032,0.412,-0.943,-4.211,-5.554,-0.366
-0.028,0.411,-0.937,-0.916,-4.700,-0.427
-0.027,0.415,-0.927,2.380,-3.479,-0.427
-0.028,0.412,-0.921,4.089,-2.075,-1.038
-0.029,0.404,-0.922,4.517,-1.038,-2.014
-0.025,0.397,-0.926,5.066,-0.427,-2.197
-0.018,0.397,-0.921,5.005,-0.549,-2.258
-0.014,0.394,-0.914,4.822,-0.793,-2.014
-0.015,0.390,-0.908,3.784,-1.404,-1.526

-0.059,0.221,-0.948,-2.563,20.569,-2.441
0.057,0.274,-0.975,-2.258,26.367,-8.057
0.103,0.282,-1.028,-2.502,30.518,-11.963
0.131,0.237,-1.051,-1.648,33.752,-14.709
0.221,0.261,-1.022,2.869,34.546,-15.808
0.296,0.288,-1.004,4.517,35.950,-17.151
0.406,0.314,-1.031,2.563,39.063,-18.860
0.522,0.333,-1.091,-1.343,42.297,-21.667
0.589,0.298,-1.110,-7.507,44.067,-25.024
0.615,0.348,-1.156,-13.794,45.166,-27.039
0.634,0.435,-1.278,-21.729,45.837,-30.884
0.652,0.444,-1.412,-24.536,44.495,-38.818
0.612,0.398,-1.492,-15.198,39.429,-48.096
0.664,0.407,-1.551,2.380,31.006,-54.749
0.672,0.378,-1.523,13.428,20.386,-58.716
0.674,0.301,-1.473,11.108,6.104,-60.181
0.697,0.229,-1.429,1.160,-5.920,-57.495
0.705,0.187,-1.349,-14.954,-15.808,-51.453
0.600,0.051,-1.289,-38.391,-22.583,-43.030
0.516,0.008,-1.242,-63.171,-26.428,-31.738
0.419,-0.045,-1.238,-84.839,-30.029,-20.935
0.261,-0.084,-1.216,-100.159,-34.424,-11.108
0.116,-0.053,-1.190,-107.300,-39.124,-1.099
-0.009,0.000,-1.170,-108.093,-42.358,8.118
-0.128,0.031,-1.131,-106.262,-42.664,14.587
-0.213,0.013,-1.087,-101.624,-39.246,17.639
-0.289,-0.054,-0.999,-94.360,-33.142,18.555
-0.362,-0.111,-0.860,-87.097,-25.085,19.653
-0.445,-0.153,-0.741,-85.938,-14.587,20.142
-0.521,-0.212,-0.662,-94.238,-2.869,21.301
-0.579,-0.247,-0.648,-109.375,8.057,24.658
-0.615,-0.263,-0.696,-126.343,15.991,30.640
-0.665,-0.291,-0.796,-140.503,18.555,39.917
-0.722,-0.334,-0.891,-148.743,15.442,51.758
-0.781,-0.360,-0.950,-147.705,8.728,65.063
-0.838,-0.347,-0.981,-139.709,0.183,77.820
-0.883,-0.323,-0.986,-129.333,-8.057,88.135
-0.896,-0.293,-0.971,-121.460,-15.503,93.506
-0.885,-0.288,-0.961,-114.563,-22.278,92.529
-0.845,-0.270,-0.947,-105.408,-28.015,85.754
-0.790,-0.235,-0.932,-93.567,-32.654,73.059
-0.718,-0.194,-0.916,-82.275,-36.316,56.763
-0.642,-0.193,-0.906,-74.280,-40.100,39.063
-0.573,-0.241,-0.913,-67.017,-43.579,22.583
-0.483,-0.285,-0.916,-54.260,-47.485,9.399
-0.374,-0.297,-0.898,-35.034,-51.208,-0.122
-0.290,-0.308,-0.847,-14.038,-53.162,-6.348
-0.245,-0.329,-0.764,2.808,-52.429,-10.742
-0.229,-0.363,-0.673,14.526,-47.852,-13.611
-0.222,-0.402,-0.597,19.226,-38.879,-14.282
-0.215,-0.422,-0.572,16.174,-27.344,-12.756
-0.201,-0.425,-0.612,9.338,-15.259,-11.108
-0.182,-0.436,-0.684,2.319,-5.737,-10.071
-0.170,-0.449,-0.758,-0.854,0.366,-9.399
-0.162,-0.444,-0.814,2.136,2.991,-9.033
-0.149,-0.421,-0.850,9.399,2.441,-8.301
-0.143,-0.398,-0.838,17.517,-0.061,-7.996
-0.148,-0.371,-0.819,22.034,-2.380,-7.996
-0.151,-0.368,-0.804,20.813,-3.601,-8.545
-0.151,-0.387,-0.805,16.907,-4.211,-9.521
-0.147,-0.389,-0.812,13.000,-4.395,-10.498
-0.134,-0.375,-0.823,9.155,-4.150,-11.475
-0.120,-0.360,-0.852,1.465,-3.174,-12.878
-0.117,-0.361,-0.884,-8.850,-2.319,-14.587
-0.123,-0.364,-0.916,-16.602,-2.136,-16.357
-0.128,-0.345,-0.937,-18.127,-3.113,-17.578
-0.120,-0.314,-0.961,-17.029,-4.700,-18.188
-0.103,-0.303,-0.977,-16.296,-6.409,-18.738
-0.086,-0.318,-0.978,-15.259,-8.362,-20.203
-0.075,-0.337,-0.973,-11.719,-10.498,-22.034
-0.076,-0.364,-0.944,-6.531,-12.329,-23.865
-0.088,-0.391,-0.916,-3.052,-12.756,-25.757
-0.088,-0.413,-0.907,-2.563,-11.719,-26.855
-0.068,-0.431,-0.924,-4.272,-10.498,-27.283
-0.043,-0.448,-0.952,-6.958,-9.766,-27.222
-0.031,-0.458,-0.963,-8.789,-10.315,-26.428
-0.019,-0.456,-0.965,-8.118,-11.292,-24.902
-0.009,-0.448,-0.971,-7.874,-12.207,-22.705
0.001,-0.446,-0.973,-7.690,-12.939,-19.348
0.011,-0.421,-0.976,-7.141,-12.695,-15.686
0.011,-0.399,-0.984,-6.714,-12.512,-11.597
-0.005,-0.382,-0.991,-6.775,-13.062,-7.507
-0.023,-0.379,-0.997,-7.019,-14.099,-4.883
-0.029,-0.395,-0.987,-7.446,-15.747,-3.845
-0.022,-0.392,-0.994,-5.249,-17.395,-3.967
-0.005,-0.391,-1.003,-2.563,-18.433,-5.615
0.009,-0.398,-1.001,-0.549,-19.043,-8.545
0.025,-0.407,-0.997,1.953,-19.165,-11.841
0.047,-0.412,-0.994,5.127,-18.738,-14.038
0.061,-0.410,-0.984,7.202,-17.761,-14.160
0.054,-0.407,-0.973,7.690,-16.541,-12.634
0.043,-0.403,-0.966,6.287,-14.771,-10.010
0.034,-0.381,-0.957,4.456,-12.817,-6.897
0.026,-0.357,-0.955,2.991,-10.864,-4.517
0.017,-0.346,-0.960,0.854,-9.155,-2.991
0.010,-0.348,-0.979,-0.427,-8.118,-1.709
-0.004,-0.364,-0.990,-0.793,-8.301,-1.343
-0.021,-0.385,-0.996,-0.854,-9.460,-0.916
-0.030,-0.389,-0.999,0.122,-11.353,-0.427
-0.039,-0.388,-0.998,-0.244,-13.489,0.305
-0.043,-0.385,-0.987,-2.625,-15.747,0.977
-0.038,-0.357,-0.976,-2.258,-18.005,2.014
-0.032,-0.336,-0.973,-1.587,-20.020,2.441
-0.038,-0.364,-0.959,-1.526,-22.400,2.380
-0.049,-0.398,-0.936,0.427,-24.597,2.563
-0.061,-0.411,-0.903,5.371,-25.452,3.357
-0.036,-0.386,-0.853,9.277,-24.963,4.395
0.026,-0.308,-0.813,15.869,-22.522,5.127
0.072,-0.228,-0.798,20.386,-18.433,3.967
0.097,-0.209,-0.789,20.081,-13.672,1.648
0.122,-0.208,-0.794,20.386,-9.216,-0.916
0.152,-0.213,-0.807,22.644,-5.615,-3.479
0.178,-0.242,-0.824,25.208,-3.235,-5.920
0.195,-0.288,-0.837,28.015,-1.648,-8.301
0.214,-0.320,-0.859,30.334,-0.793,-10.071
0.244,-0.343,-0.892,30.457,-0.183,-10.559
0.273,-0.355,-0.924,28.687,-0.122,-9.277
0.300,-0.355,-0.947,24.841,-0.183,-7.263
0.315,-0.361,-0.958,21.362,-0.793,-4.761
0.322,-0.359,-0.965,18.311,-1.770,-1.953
0.320,-0.338,-0.975,15.259,-2.686,1.953
0.306,-0.312,-0.981,11.536,-3.296,6.104
0.279,-0.297,-0.983,6.653,-3.601,9.766
0.252,-0.285,-0.976,1.526,-3.723,12.756
0.235,-0.264,-0.962,-2.197,-3.784,14.343
0.222,-0.240,-0.967,-5.676,-3.235,13.855
0.208,-0.235,-0.989,-9.827,-2.319,11.841
0.195,-0.254,-1.015,-14.771,-2.136,8.911
0.183,-0.280,-1.044,-18.799,-3.174,5.493
0.176,-0.311,-1.065,-20.630,-5.310,1.892
0.190,-0.337,-1.081,-20.020,-8.362,-1.404
0.212,-0.363,-1.101,-17.273,-11.841,-3.906
0.221,-0.383,-1.109,-12.878,-15.564,-4.883
0.217,-0.401,-1.093,-8.057,-18.738,-4.211
0.204,-0.407,-1.062,-3.418,-20.142,-1.038
0.190,-0.398,-1.035,0.427,-19.165,3.662
0.175,-0.378,-1.006,2.625,-16.113,8.301
0.160,-0.355,-0.992,2.869,-11.597,11.475
0.141,-0.341,-0.996,2.197,-7.324,12.573
0.117,-0.332,-1.003,1.343,-3.967,12.390
0.099,-0.323,-1.007,1.526,-2.441,11.230
0.087,-0.320,-1.004,3.784,-2.563,10.254
0.082,-0.307,-0.990,7.568,-3.723,8.789
0.080,-0.293,-0.976,10.803,-5.249,7.385
0.078,-0.294,-0.965,11.475,-6.592,5.859
0.075,-0.305,-0.958,11.047,-7.507,4.883
0.075,-0.308,-0.955,10.864,-8.301,4.028
0.074,-0.308,-0.939,11.536,-8.789,3.967
0.069,-0.295,-0.929,12.512,-8.789,3.784

-0.074,1.027,-0.340,-23.987,-10.071,-15.991
0.036,1.001,-0.153,-26.245,-6.104,-18.738
0.060,1.026,-0.212,-27.222,3.723,-20.264
0.013,0.971,-0.328,-33.813,12.390,-21.606
0.038,0.955,-0.387,-34.119,13.000,-20.935
0.081,0.939,-0.391,-29.053,8.911,-20.081
0.115,0.882,-0.366,-23.621,6.226,-18.677
0.172,0.825,-0.257,-18.005,5.554,-14.221
0.197,0.811,-0.174,-15.259,10.010,-5.859
0.203,0.815,-0.174,-18.127,18.188,2.869
0.231,0.842,-0.245,-28.137,24.231,9.644
0.264,0.868,-0.322,-41.565,23.010,13.062
0.288,0.856,-0.386,-54.443,16.357,13.672
0.281,0.831,-0.418,-62.073,8.240,14.587
0.262,0.810,-0.449,-65.796,1.221,17.456
0.254,0.824,-0.510,-66.162,-2.441,22.644
0.248,0.815,-0.457,-63.599,-6.287,28.320
0.256,0.812,-0.422,-59.753,-9.827,33.936
0.270,0.843,-0.386,-58.655,-9.888,40.100
0.237,0.848,-0.378,-61.768,-6.348,46.448
0.165,0.820,-0.389,-67.688,-0.549,52.307
0.095,0.844,-0.371,-72.449,6.287,57.495
0.055,0.852,-0.485,-75.012,13.916,60.608
0.040,0.901,-0.569,-77.820,18.433,61.096
0.100,0.898,-0.572,-79.468,19.226,58.044
0.096,0.892,-0.602,-77.271,18.921,52.979
0.036,0.888,-0.630,-73.120,17.029,50.354
-0.019,0.924,-0.642,-67.688,12.939,50.110
-0.060,0.930,-0.635,-63.110,8.667,49.377
-0.078,0.913,-0.606,-60.547,4.456,47.546
-0.107,0.904,-0.607,-56.946,1.404,44.800
-0.120,0.875,-0.584,-54.504,-1.282,40.955
-0.131,0.838,-0.562,-53.223,-2.808,35.950
-0.124,0.800,-0.552,-53.833,-3.357,31.433
-0.123,0.783,-0.543,-56.274,-3.601,28.381
-0.125,0.794,-0.488,-59.570,-4.211,27.649
-0.151,0.804,-0.499,-64.026,-1.770,28.748
-0.163,0.800,-0.543,-70.007,1.831,29.541
-0.167,0.781,-0.599,-75.439,4.333,30.273
-0.175,0.770,-0.637,-75.806,5.188,30.579
-0.183,0.766,-0.663,-73.608,5.371,30.090
-0.187,0.769,-0.677,-71.411,5.554,29.480
-0.179,0.783,-0.696,-69.092,6.104,27.954
-0.175,0.789,-0.733,-67.871,6.470,25.330
-0.170,0.780,-0.762,-67.505,5.737,22.583
-0.172,0.759,-0.790,-65.491,4.089,19.531
-0.187,0.734,-0.806,-62.744,1.404,16.724
-0.205,0.716,-0.798,-60.974,-1.953,15.137
-0.224,0.723,-0.796,-59.998,-5.127,14.343
-0.245,0.738,-0.827,-59.631,-8.545,12.329
-0.262,0.736,-0.846,-59.448,-13.550,8.911
-0.274,0.721,-0.837,-59.021,-19.409,4.883
-0.276,0.701,-0.816,-57.617,-23.743,0.916
-0.269,0.685,-0.792,-57.129,-26.489,-1.953
-0.258,0.661,-0.776,-57.800,-27.283,-4.211
-0.250,0.624,-0.766,-58.716,-26.428,-5.127
-0.245,0.588,-0.772,-58.777,-24.109,-4.700
-0.238,0.567,-0.786,-57.251,-20.813,-2.441
-0.229,0.561,-0.801,-53.955,-17.578,0.977
-0.230,0.565,-0.817,-49.683,-15.076,4.761
-0.238,0.562,-0.833,-46.082,-12.878,8.057
-0.250,0.574,-0.846,-42.542,-11.780,10.254
-0.260,0.597,-0.852,-38.147,-11.536,10.498
-0.265,0.613,-0.835,-34.546,-12.207,8.179
-0.264,0.615,-0.826,-32.349,-12.695,3.906
-0.254,0.586,-0.830,-32.166,-12.939,-0.549
-0.246,0.563,-0.853,-32.715,-13.123,-3.723
-0.236,0.546,-0.871,-32.288,-13.916,-4.761
-0.225,0.531,-0.867,-31.250,-14.954,-4.089
-0.212,0.526,-0.854,-29.053,-15.625,-2.808
-0.200,0.524,-0.839,-26.489,-15.320,-1.282
-0.196,0.527,-0.821,-24.292,-14.526,-0.427
-0.200,0.532,-0.805,-22.766,-13.672,-0.610
-0.202,0.525,-0.797,-22.339,-12.634,-1.343
-0.202,0.510,-0.807,-22.278,-11.230,-2.808
-0.198,0.499,-0.821,-22.888,-10.071,-4.089
-0.190,0.490,-0.824,-22.461,-9.460,-4.089
-0.182,0.487,-0.825,-22.583,-9.155,-3.662
-0.175,0.478,-0.818,-24.048,-9.399,-3.235
-0.176,0.472,-0.811,-26.489,-10.193,-2.869
-0.182,0.468,-0.805,-30.090,-11.475,-2.319
-0.193,0.470,-0.806,-34.912,-12.756,-1.221
-0.197,0.474,-0.810,-39.001,-14.038,0.183
-0.193,0.471,-0.815,-42.419,-15.137,0.549
-0.183,0.464,-0.818,-44.556,-15.503,0.244
-0.172,0.456,-0.822,-45.532,-15.015,-0.427
-0.172,0.444,-0.837,-45.532,-13.184,-1.099
-0.181,0.431,-0.865,-44.922,-10.620,-0.671
-0.179,0.426,-0.883,-41.870,-8.301,1.099
-0.174,0.436,-0.896,-35.950,-5.554,2.502
-0.171,0.449,-0.893,-29.480,-3.357,3.052
-0.172,0.458,-0.888,-24.170,-1.709,3.052
-0.173,0.456,-0.886,-22.095,-0.488,2.380
-0.172,0.447,-0.885,-21.484,0.183,1.465
-0.166,0.443,-0.884,-22.522,-0.122,0.122
-0.155,0.434,-0.887,-24.719,-0.671,-1.709
-0.142,0.418,-0.894,-28.076,-1.831,-3.723
-0.124,0.396,-0.897,-31.250,-3.296,-4.639
-0.112,0.380,-0.895,-33.936,-4.639,-4.395
-0.106,0.378,-0.889,-35.278,-5.493,-2.563
-0.104,0.387,-0.887,-35.889,-5.371,-0.366
-0.101,0.404,-0.895,-34.790,-4.456,1.099
-0.100,0.410,-0.911,-33.081,-2.625,0.916
-0.094,0.406,-0.922,-30.823,-0.793,-0.488
-0.086,0.413,-0.927,-27.649,0.793,-2.258
-0.082,0.414,-0.924,-24.414,2.136,-3.967
-0.080,0.412,-0.926,-23.499,2.930,-5.432
-0.076,0.409,-0.935,-23.621,3.662,-7.202
-0.068,0.387,-0.950,-24.414,3.784,-9.094
-0.058,0.357,-0.968,-24.475,3.479,-10.132
-0.059,0.348,-0.996,-22.461,2.747,-9.888
-0.070,0.344,-1.010,-19.409,1.099,-7.996
-0.081,0.337,-1.008,-15.686,-0.977,-5.798
-0.092,0.327,-0.999,-11.841,-3.052,-4.272
-0.100,0.319,-0.982,-7.874,-4.944,-1.526
-0.108,0.314,-0.960,-5.005,-5.737,0.916
-0.111,0.311,-0.934,-3.052,-6.042,3.540
-0.115,0.312,-0.915,-2.258,-5.737,6.226
-0.124,0.315,-0.901,-3.296,-5.066,8.911
-0.134,0.319,-0.898,-5.676,-4.395,12.268
-0.148,0.330,-0.900,-9.338,-4.089,16.052
-0.163,0.347,-0.914,-13.611,-4.333,19.470
-0.175,0.360,-0.932,-17.517,-5.005,22.644
-0.185,0.365,-0.952,-20.569,-6.409,24.414
-0.194,0.365,-0.966,-20.691,-8.362,24.841
-0.202,0.356,-0.971,-19.165,-10.010,24.414
-0.206,0.345,-0.960,-16.602,-10.864,23.621
-0.207,0.345,-0.943,-13.123,-10.193,23.315
-0.203,0.359,-0.923,-9.766,-8.301,22.583
-0.207,0.370,-0.913,-7.507,-6.042,20.447
-0.216,0.368,-0.911,-7.080,-4.089,17.822
-0.226,0.367,-0.913,-8.118,-2.930,15.259
-0.225,0.373,-0.930,-8.911,-2.319,12.512
-0.218,0.365,-0.935,-8.057,-2.380,9.705
-0.215,0.355,-0.922,-5.615,-2.747,6.470
-0.215,0.360,-0.903,-2.258,-2.625,3.845
-0.211,0.367,-0.896,-0.183,-1.587,0.977
-0.201,0.369,-0.910,0.244,-0.366,-2.380
-0.193,0.366,-0.921,0.183,0.732,-5.859
-0.187,0.361,-0.926,0.793,1.282,-9.644
-0.175,0.350,-0.929,0.488,1.282,-13.611
-0.153,0.340,-0.938,-0.366,0.793,-16.846
-0.134,0.322,-0.948,-1.282,0.000,-18.982
-0.124,0.295,-0.949,-1.465,-0.793,-19.592
-0.115,0.282,-0.949,-1.221,-1.282,-18.494
-0.102,0.287,-0.950,0.732,-1.221,-15.991
-0.097,0.292,-0.949,2.930,-1.160,-13.489
-0.109,0.301,-0.943,4.761,-1.099,-10.925
-0.126,0.321,-0.936,5.859,-1.282,-8.667

0.100,-0.166,-1.167,1.892,10.864,-3.723
0.177,-0.212,-0.981,3.784,6.165,-2.869
0.165,-0.152,-0.928,7.629,4.333,-2.319
0.137,-0.160,-0.907,2.319,6.165,-2.502
0.144,-0.142,-0.922,-3.845,7.751,-2.869
0.143,-0.144,-0.945,-8.728,8.057,-4.578
0.155,-0.146,-0.952,-11.536,7.629,-6.348
0.172,-0.193,-0.972,-13.245,6.836,-7.690
0.213,-0.241,-0.979,-12.573,6.592,-7.629
0.226,-0.263,-0.989,-10.193,7.507,-4.883
0.230,-0.235,-0.983,-7.141,8.850,0.061
0.206,-0.174,-0.957,-3.723,10.620,4.211
0.190,-0.131,-0.941,-0.610,13.367,5.127
0.204,-0.114,-0.934,2.930,16.602,2.502
0.212,-0.144,-0.951,4.272,19.897,-2.014
0.239,-0.199,-0.990,3.967,21.790,-4.822
0.301,-0.295,-0.945,3.845,21.179,-4.578
0.291,-0.248,-1.011,2.991,19.531,-0.854
0.303,-0.259,-1.020,-1.099,16.357,4.883
0.312,-0.224,-1.012,-5.554,12.451,11.108
0.304,-0.177,-1.017,-11.230,8.179,15.076
0.296,-0.154,-1.028,-17.822,3.601,15.686
0.288,-0.154,-1.043,-23.621,-1.404,13.611
0.277,-0.158,-1.059,-26.855,-6.042,10.376
0.274,-0.159,-1.042,-28.442,-10.559,7.446
0.262,-0.160,-1.012,-29.846,-13.672,3.967
0.264,-0.166,-1.014,-32.349,-13.977,0.305
0.280,-0.197,-1.025,-36.072,-12.939,-2.380
0.279,-0.212,-1.024,-37.170,-11.169,-3.845
0.261,-0.215,-1.009,-36.011,-8.911,-3.540
0.249,-0.206,-0.984,-34.302,-6.226,-2.686
0.231,-0.192,-0.968,-31.616,-2.686,-2.869
0.217,-0.177,-0.960,-28.687,0.610,-4.578
0.210,-0.166,-0.967,-24.414,2.991,-6.958
0.205,-0.177,-0.978,-20.630,4.028,-11.230
0.201,-0.192,-0.989,-17.273,3.662,-15.198
0.195,-0.196,-0.990,-12.207,2.319,-18.250
0.190,-0.211,-0.981,-7.202,1.343,-21.606
0.194,-0.252,-1.009,-5.554,1.343,-24.170
0.222,-0.268,-1.015,-5.371,-0.366,-23.926
0.240,-0.271,-1.015,-3.906,-2.930,-22.888
0.242,-0.274,-0.992,-2.502,-5.554,-21.179
0.235,-0.265,-0.946,-0.366,-7.263,-18.677
0.230,-0.237,-0.911,1.343,-7.568,-15.381
0.213,-0.222,-0.862,2.075,-6.775,-11.963
0.192,-0.207,-0.848,2.258,-4.028,-9.583
0.177,-0.196,-0.854,1.526,0.244,-8.911
0.164,-0.195,-0.874,1.465,5.005,-9.399
0.149,-0.211,-0.931,0.183,8.850,-11.353
0.146,-0.241,-1.004,-3.906,10.254,-13.367
0.144,-0.257,-1.074,-9.644,7.751,-14.587
0.141,-0.263,-1.113,-14.771,1.343,-15.320
0.136,-0.278,-1.117,-17.029,-7.446,-15.686
0.136,-0.291,-1.087,-15.137,-16.479,-15.076
0.145,-0.285,-1.040,-10.254,-22.278,-13.855
0.151,-0.289,-0.978,-5.127,-22.888,-11.658
0.152,-0.296,-0.918,-0.488,-18.188,-9.277
0.134,-0.288,-0.878,3.601,-9.399,-7.202
0.094,-0.270,-0.901,4.761,0.916,-5.371
0.070,-0.266,-0.985,1.587,10.620,-3.662
0.073,-0.268,-1.081,-0.916,16.602,-2.380
0.083,-0.263,-1.144,3.357,17.151,-2.258
0.093,-0.268,-1.149,13.794,13.916,-3.662
0.094,-0.280,-1.107,27.771,10.193,-4.639
0.089,-0.294,-1.020,41.443,8.850,-3.662
0.078,-0.291,-0.924,51.208,11.719,-0.732
0.075,-0.269,-0.880,55.176,18.555,2.319
0.072,-0.252,-0.878,53.101,26.550,4.761
0.061,-0.238,-0.897,48.096,32.593,5.798
0.049,-0.216,-0.923,42.969,35.156,5.493
0.047,-0.182,-0.959,36.987,33.875,4.578
0.050,-0.159,-1.009,29.907,30.762,3.174
0.044,-0.164,-1.060,22.217,26.672,2.258
0.040,-0.176,-1.094,16.357,22.400,2.625
