aX,aY,aZ,gX,gY,gZ
0.511,0.202,-1.125,16.418,-0.305,10.803
0.499,0.257,-1.064,13.367,-4.578,15.869
0.549,0.312,-1.036,14.709,-7.202,13.672
0.524,0.252,-1.023,11.414,-6.897,9.094
0.507,0.156,-1.021,4.517,-7.202,8.179
0.521,0.097,-1.017,2.136,-9.277,9.888
0.525,0.065,-0.987,1.099,-11.719,13.672
0.505,0.072,-0.940,-2.319,-13.428,19.714
0.493,0.072,-0.892,-9.155,-14.282,25.269
0.468,0.071,-0.855,-19.348,-14.465,29.175
0.437,0.046,-0.873,-31.677,-12.329,32.410
0.401,0.039,-0.849,-39.246,-8.972,34.790
0.404,0.028,-0.796,-40.527,-2.930,34.485
0.404,-0.032,-0.754,-39.490,7.141,31.860
0.345,-0.138,-0.753,-37.048,18.982,29.907
0.315,-0.241,-0.714,-31.372,27.832,30.884
0.227,-0.418,-0.854,-28.259,33.569,37.231
0.269,-0.468,-0.895,-16.785,32.288,49.500
0.338,-0.436,-0.904,-10.315,25.146,64.026
0.335,-0.347,-0.921,-13.611,16.235,76.965
0.276,-0.233,-0.942,-24.048,7.080,86.243
0.219,-0.160,-0.940,-34.851,-1.709,89.417
0.199,-0.173,-0.976,-41.260,-8.057,86.792
0.182,-0.208,-1.012,-41.565,-11.230,81.177
0.248,-0.269,-1.012,-33.813,-10.681,74.097
0.291,-0.330,-0.977,-28.870,-5.859,66.956
0.283,-0.338,-0.990,-24.719,2.686,63.782
0.260,-0.335,-1.034,-20.508,12.756,64.392
0.275,-0.371,-1.072,-19.958,20.203,69.214
0.290,-0.396,-1.118,-20.874,24.048,76.965
0.286,-0.380,-1.175,-21.912,23.987,86.853
0.273,-0.372,-1.240,-23.926,19.958,98.389
0.257,-0.372,-1.259,-26.123,12.024,110.779
0.238,-0.364,-1.251,-26.123,2.991,122.925
0.223,-0.359,-1.222,-24.170,-4.089,134.705
0.206,-0.337,-1.203,-21.301,-7.751,145.325
0.177,-0.304,-1.180,-19.226,-8.789,153.625
0.133,-0.252,-1.173,-17.578,-8.545,159.668
0.102,-0.221,-1.195,-17.761,-8.545,162.476
0.079,-0.219,-1.219,-19.165,-10.254,163.818
0.042,-0.203,-1.226,-18.982,-14.587,164.856
0.013,-0.182,-1.235,-18.982,-20.813,166.016
-0.016,-0.165,-1.232,-19.104,-27.466,168.701
-0.053,-0.144,-1.229,-17.883,-32.776,173.584
-0.076,-0.123,-1.233,-15.747,-35.583,179.749
-0.111,-0.091,-1.220,-13.367,-36.377,186.523
-0.162,-0.032,-1.201,-10.315,-36.560,191.650
-0.203,0.038,-1.187,-8.667,-37.842,193.970
-0.221,0.095,-1.178,-8.789,-40.466,193.970
-0.231,0.128,-1.188,-9.827,-44.617,191.772
-0.225,0.130,-1.193,-11.353,-50.110,188.110
-0.233,0.125,-1.180,-9.949,-55.542,185.120
-0.261,0.132,-1.122,-5.005,-59.265,184.570
-0.277,0.190,-1.082,0.610,-59.021,186.157
-0.279,0.239,-1.080,4.150,-55.054,188.416
-0.289,0.274,-1.088,7.751,-50.232,188.843
-0.312,0.305,-1.093,13.245,-46.814,187.988
-0.330,0.349,-1.079,20.264,-45.288,185.913
-0.334,0.383,-1.070,25.513,-45.654,182.495
-0.345,0.394,-1.042,29.236,-46.997,178.406
-0.363,0.415,-1.014,33.264,-49.561,174.622
-0.380,0.440,-0.954,37.109,-52.917,170.715
-0.389,0.472,-0.901,39.978,-55.908,167.725
-0.388,0.499,-0.864,40.466,-57.678,165.283
-0.389,0.500,-0.819,40.710,-57.617,163.330
-0.394,0.524,-0.769,43.274,-56.274,161.682
-0.391,0.555,-0.734,46.875,-53.467,159.607
-0.377,0.591,-0.686,49.988,-49.683,156.799
-0.362,0.627,-0.674,52.124,-44.983,153.198
-0.351,0.612,-0.686,52.551,-40.039,149.170
-0.354,0.596,-0.679,54.932,-35.889,146.057
-0.359,0.618,-0.672,58.594,-32.043,144.287
-0.363,0.644,-0.674,60.730,-28.564,143.250
-0.371,0.683,-0.668,60.730,-27.039,142.273
-0.381,0.724,-0.668,59.570,-27.283,141.052
-0.385,0.768,-0.660,55.969,-29.236,139.526
-0.391,0.802,-0.634,51.636,-32.776,136.047
-0.405,0.837,-0.594,46.875,-36.499,130.859
-0.415,0.878,-0.556,42.175,-39.001,124.695
-0.414,0.905,-0.535,38.025,-39.063,118.652
-0.415,0.932,-0.500,36.133,-36.621,113.342
-0.417,0.977,-0.473,35.217,-31.616,108.215
-0.417,1.018,-0.463,33.203,-24.597,101.929
-0.419,1.052,-0.457,30.823,-17.273,93.567
-0.418,1.075,-0.464,28.076,-10.620,83.130
-0.411,1.087,-0.479,24.170,-5.737,71.228
-0.407,1.086,-0.504,18.921,-2.747,58.899
-0.401,1.072,-0.537,12.573,-1.099,46.936
-0.385,1.046,-0.570,6.165,-0.610,36.011
-0.370,1.009,-0.599,1.221,-0.793,26.489
-0.357,0.984,-0.614,-2.563,-1.526,18.738
-0.344,0.975,-0.614,-5.066,-1.892,12.817
-0.333,0.965,-0.629,-8.606,-1.465,7.874
-0.316,0.949,-0.658,-13.000,-0.549,2.625
-0.287,0.927,-0.704,-16.296,0.488,-2.991
-0.256,0.889,-0.747,-17.029,1.465,-8.545
-0.223,0.852,-0.769,-14.465,2.319,-14.343
-0.189,0.816,-0.777,-10.132,2.991,-19.165
-0.159,0.780,-0.780,-6.287,4.211,-23.010
-0.133,0.747,-0.770,-2.808,5.066,-25.696
-0.114,0.739,-0.749,0.671,5.798,-26.550
-0.104,0.741,-0.727,1.953,6.409,-26.184
-0.096,0.752,-0.729,0.366,6.653,-25.635
-0.086,0.755,-0.750,-2.625,6.165,-25.635
-0.075,0.750,-0.776,-4.822,5.249,-26.733
-0.061,0.730,-0.793,-4.333,4.517,-28.625
-0.047,0.709,-0.790,-1.831,3.906,-31.006
-0.037,0.698,-0.776,1.160,3.845,-33.386
-0.030,0.690,-0.759,3.174,4.150,-34.912
-0.032,0.689,-0.751,3.723,4.578,-35.522
-0.031,0.687,-0.764,1.587,4.761,-35.706
-0.024,0.674,-0.782,-1.770,4.333,-36.194
-0.015,0.656,-0.802,-3.723,3.296,-37.170
-0.008,0.637,-0.822,-4.944,2.502,-38.147
-0.003,0.623,-0.835,-5.005,1.709,-38.574
0.004,0.630,-0.833,-4.089,0.610,-38.086
0.016,0.636,-0.830,-4.028,-0.488,-38.086
0.030,0.634,-0.836,-5.127,-1.892,-38.391
0.045,0.620,-0.830,-5.554,-3.540,-39.001
0.055,0.600,-0.813,-4.456,-4.944,-39.490
0.067,0.584,-0.805,-3.662,-5.127,-39.673
0.074,0.568,-0.814,-4.211,-4.639,-39.368
0.085,0.560,-0.831,-5.066,-4.089,-38.452
0.097,0.563,-0.847,-5.432,-4.272,-37.170
0.105,0.559,-0.854,-5.127,-5.310,-36.072
0.103,0.554,-0.848,-4.333,-6.409,-34.851
0.104,0.554,-0.838,-3.174,-7.507,-33.630
0.108,0.552,-0.830,-2.502,-8.118,-32.471
0.109,0.548,-0.819,-1.526,-8.057,-31.311
0.108,0.552,-0.801,-0.366,-7.874,-29.968
0.108,0.561,-0.793,0.122,-7.568,-29.419
0.101,0.558,-0.791,-0.427,-7.141,-28.992
0.095,0.557,-0.793,-1.465,-7.019,-28.748
0.098,0.562,-0.803,-3.113,-6.958,-28.381
0.097,0.563,-0.822,-5.188,-7.446,-27.832
0.095,0.567,-0.841,-6.531,-8.545,-27.954
0.099,0.573,-0.849,-8.057,-10.559,-28.503
0.101,0.573,-0.841,-8.606,-13.184,-29.358
0.108,0.564,-0.830,-8.179,-15.503,-30.701
0.117,0.552,-0.820,-6.470,-16.663,-31.433
0.126,0.545,-0.818,-4.028,-16.052,-31.250
0.131,0.538,-0.807,-1.526,-14.221,-30.823
0.133,0.540,-0.791,0.732,-12.085,-30.457
0.144,0.553,-0.785,0.732,-9.766,-30.701
0.153,0.561,-0.800,-0.488,-7.935,-32.104
0.163,0.558,-0.811,-1.831,-7.874,-33.936
0.171,0.563,-0.807,-2.747,-9.155,-34.912
0.181,0.565,-0.801,-3.418,-10.986,-35.889
0.193,0.556,-0.798,-4.639,-13.184,-36.499

0.639,-0.826,-0.297,60.120,20.691,-3.296
0.689,-0.882,-0.180,53.406,25.818,13.367
0.671,-0.786,-0.173,59.998,38.452,20.325
0.578,-0.796,-0.194,55.786,51.208,20.081
0.588,-0.779,-0.258,46.082,57.556,17.944
0.592,-0.848,-0.305,33.752,54.993,12.695
0.610,-0.939,-0.267,17.029,45.959,6.470
0.632,-1.037,-0.234,-4.822,36.926,4.822
0.667,-1.155,-0.274,-30.579,31.555,9.094
0.693,-1.259,-0.320,-51.025,28.015,17.883
0.726,-1.298,-0.304,-59.082,26.245,28.931
0.750,-1.306,-0.230,-58.472,29.053,40.222
0.722,-1.302,-0.183,-53.711,37.537,51.147
0.678,-1.300,-0.151,-44.861,46.753,60.791
0.709,-1.270,-0.059,-34.668,54.626,70.679
0.584,-1.312,-0.171,-25.146,62.134,81.787
0.641,-1.305,-0.225,-23.621,60.669,96.741
0.696,-1.273,-0.258,-21.790,58.350,114.380
0.685,-1.270,-0.302,-27.954,55.176,133.057
0.646,-1.205,-0.301,-37.109,52.734,152.161
0.567,-1.068,-0.313,-42.725,52.734,167.297
0.470,-0.954,-0.391,-49.683,54.504,176.392
0.490,-0.937,-0.478,-57.617,55.969,179.260
0.544,-0.931,-0.556,-54.871,56.335,177.795
0.587,-0.914,-0.597,-43.884,56.030,176.025
0.573,-0.844,-0.600,-31.494,55.664,175.659
0.549,-0.765,-0.595,-23.926,56.458,175.842
0.528,-0.682,-0.584,-23.254,58.167,177.124
0.509,-0.596,-0.594,-26.123,60.791,178.772
0.491,-0.515,-0.619,-31.555,63.232,179.932
0.479,-0.435,-0.655,-38.513,64.453,180.115
0.473,-0.357,-0.708,-45.105,63.965,178.101
0.465,-0.275,-0.769,-49.744,61.462,174.622
0.471,-0.194,-0.812,-52.734,56.824,169.739
0.494,-0.146,-0.844,-58.105,49.927,163.757
0.505,-0.096,-0.843,-66.467,41.809,157.043
0.503,-0.053,-0.831,-77.515,33.020,149.658
0.503,-0.026,-0.825,-92.407,24.048,141.602
0.513,-0.005,-0.824,-108.032,14.771,133.179
0.532,-0.012,-0.855,-119.141,5.554,124.695
0.561,-0.027,-0.891,-121.704,-3.052,117.920
0.585,-0.031,-0.901,-117.249,-10.132,113.281
0.608,-0.031,-0.892,-108.765,-14.832,111.084
0.624,-0.013,-0.867,-99.731,-15.808,110.962
0.631,0.010,-0.841,-94.482,-12.451,112.671
0.623,0.038,-0.825,-94.910,-5.920,115.051
0.606,0.068,-0.821,-99.487,1.953,116.760
0.583,0.086,-0.832,-107.178,10.376,117.981
0.568,0.108,-0.853,-116.455,17.761,118.103
0.562,0.131,-0.890,-125.427,23.193,116.760
0.558,0.128,-0.943,-131.714,24.353,113.708
0.552,0.108,-0.992,-132.080,21.545,110.779
0.557,0.108,-0.997,-126.343,16.235,109.192
0.579,0.127,-0.966,-117.981,11.292,109.741
0.586,0.136,-0.929,-110.779,9.399,112.793
0.577,0.134,-0.899,-103.943,10.437,117.493
0.563,0.139,-0.867,-96.497,13.184,122.253
0.554,0.160,-0.826,-88.745,16.785,127.563
0.543,0.186,-0.786,-82.153,21.484,132.019
0.529,0.201,-0.761,-77.759,25.818,134.583
0.522,0.225,-0.740,-75.745,29.785,135.864
0.492,0.223,-0.741,-75.989,33.936,136.292
0.498,0.270,-0.741,-74.646,36.560,136.475
0.496,0.292,-0.738,-72.571,36.560,135.986
0.494,0.302,-0.727,-70.862,37.720,135.315
0.491,0.318,-0.721,-67.688,41.931,136.841
0.487,0.341,-0.730,-64.575,49.866,139.954
0.492,0.373,-0.750,-60.852,59.875,143.921
0.490,0.404,-0.778,-54.688,70.068,147.827
0.474,0.448,-0.794,-44.434,78.979,151.489
0.446,0.484,-0.806,-31.982,86.487,154.785
0.418,0.515,-0.801,-17.395,93.262,158.386
0.378,0.554,-0.794,-1.892,101.196,162.354
0.332,0.612,-0.801,11.902,110.474,166.748
0.294,0.666,-0.851,22.278,119.934,170.593
0.260,0.715,-0.916,30.640,126.587,171.753
0.219,0.768,-0.971,39.673,128.357,168.945
0.175,0.822,-0.997,49.316,125.122,162.415
0.136,0.873,-0.998,57.678,118.103,152.893
0.097,0.910,-0.985,62.866,108.459,141.968
0.062,0.948,-0.962,64.331,98.267,130.188
0.034,0.980,-0.945,62.500,88.440,117.859
0.017,0.998,-0.939,58.716,79.041,104.431
0.014,1.010,-0.934,54.932,70.313,89.478
0.015,1.013,-0.923,51.941,61.462,73.914
0.016,1.005,-0.911,49.683,52.063,58.044
0.024,0.984,-0.884,47.729,42.542,42.236
0.036,0.959,-0.847,45.837,33.142,27.893
0.049,0.924,-0.805,43.091,24.536,15.015
0.065,0.893,-0.762,39.246,17.395,4.456
0.082,0.860,-0.727,34.851,12.146,-3.418
0.101,0.828,-0.707,30.334,8.484,-8.545
0.117,0.803,-0.688,26.611,6.592,-12.756
0.128,0.787,-0.675,23.987,6.042,-15.625
0.140,0.779,-0.667,21.851,6.897,-18.372
0.152,0.767,-0.672,19.775,8.667,-20.996
0.163,0.749,-0.686,18.250,10.559,-23.743
0.177,0.732,-0.700,17.700,11.536,-26.428
0.192,0.715,-0.708,18.311,11.963,-29.053
0.207,0.701,-0.715,18.616,12.146,-31.372
0.221,0.690,-0.723,18.433,12.390,-33.508
0.234,0.677,-0.733,17.395,12.329,-35.950
0.247,0.658,-0.739,17.029,12.085,-38.757
0.263,0.637,-0.735,17.700,11.597,-41.443
0.282,0.614,-0.734,18.494,11.414,-43.457
0.295,0.589,-0.735,18.860,11.780,-43.823
0.308,0.574,-0.740,17.761,12.451,-42.908
0.322,0.570,-0.751,16.663,13.306,-41.077
0.333,0.566,-0.769,14.832,13.611,-40.039
0.342,0.563,-0.781,13.428,13.062,-39.185
0.351,0.557,-0.790,12.695,11.719,-38.391
0.355,0.551,-0.797,12.207,10.132,-37.537
0.356,0.541,-0.801,12.146,9.216,-36.011
0.356,0.540,-0.797,12.939,8.301,-33.875
0.357,0.550,-0.789,14.221,8.118,-31.555
0.350,0.559,-0.781,14.832,8.423,-29.419
0.342,0.564,-0.774,15.869,9.033,-27.222
0.333,0.571,-0.758,17.822,10.132,-25.452
0.317,0.583,-0.737,20.813,11.780,-23.865
0.300,0.596,-0.722,23.804,14.832,-22.156
0.287,0.621,-0.706,26.855,19.470,-20.996
0.278,0.646,-0.702,29.785,24.597,-20.935
0.266,0.658,-0.706,31.677,29.114,-22.583
0.254,0.666,-0.716,32.654,32.471,-25.024
0.245,0.675,-0.714,33.203,34.302,-27.283
0.238,0.680,-0.713,34.363,35.583,-29.053
0.229,0.686,-0.708,35.095,37.109,-30.090
0.221,0.695,-0.708,35.095,38.696,-30.884
0.214,0.701,-0.707,35.339,40.283,-32.471
0.205,0.698,-0.706,34.790,41.931,-35.400
0.195,0.695,-0.708,33.630,43.030,-38.757
0.188,0.708,-0.710,32.837,43.640,-42.236
0.184,0.712,-0.715,31.311,43.762,-45.898
0.180,0.711,-0.725,28.381,43.213,-48.645
0.178,0.717,-0.741,25.818,42.664,-50.415
0.174,0.723,-0.750,25.330,41.992,-52.002
0.163,0.729,-0.744,27.039,41.748,-53.223
0.147,0.758,-0.736,29.724,42.419,-54.260
0.129,0.791,-0.726,32.288,44.067,-55.908
0.111,0.807,-0.714,34.485,46.021,-59.326
0.103,0.821,-0.702,36.499,47.546,-64.575
0.108,0.807,-0.711,37.537,49.072,-71.594
0.133,0.782,-0.722,38.330,50.720,-79.834
0.159,0.757,-0.737,39.063,51.514,-88.440
0.179,0.722,-0.744,39.734,51.819,-96.069
0.199,0.689,-0.742,41.931,51.208,-101.990
0.218,0.660,-0.727,45.044,50.293,-104.858
0.220,0.650,-0.697,49.500,50.781,-103.271
0.208,0.682,-0.654,54.565,53.650,-97.717

0.152,-0.036,-1.110,0.671,36.743,32.898
0.093,-0.037,-1.139,8.667,45.593,38.269
0.172,0.029,-1.108,20.996,47.913,39.124
0.156,0.010,-1.122,24.658,49.316,38.513
0.150,-0.059,-1.193,17.273,45.532,40.710
0.167,-0.124,-1.224,11.292,36.499,45.410
0.157,-0.115,-1.219,7.874,25.635,51.331
0.139,-0.132,-1.228,1.587,15.076,56.885
0.121,-0.156,-1.242,-4.578,5.554,61.340
0.108,-0.199,-1.254,-7.629,-1.648,65.247
0.095,-0.246,-1.283,-8.789,-6.287,69.885
0.107,-0.268,-1.282,-8.118,-9.460,74.890
0.134,-0.297,-1.260,-5.798,-12.024,78.369
0.153,-0.339,-1.245,-3.601,-13.611,81.604
0.158,-0.369,-1.216,-0.427,-14.526,86.060
0.131,-0.377,-1.197,5.371,-13.916,92.346
0.109,-0.388,-1.203,10.559,-11.597,100.464
0.086,-0.376,-1.223,16.968,-9.949,109.436
0.082,-0.367,-1.240,25.513,-10.315,115.540
0.020,-0.330,-1.252,28.259,-10.498,121.704
-0.002,-0.268,-1.267,27.771,-13.855,129.150
-0.018,-0.213,-1.290,28.564,-17.639,135.681
-0.049,-0.223,-1.307,28.259,-21.179,141.785
-0.084,-0.201,-1.301,30.029,-24.231,147.278
-0.115,-0.098,-1.266,33.875,-26.489,151.245
-0.139,0.005,-1.237,37.964,-27.771,152.039
-0.159,0.058,-1.241,40.527,-28.564,149.780
-0.186,0.081,-1.253,42.236,-30.212,147.705
-0.217,0.108,-1.260,43.640,-33.447,147.217
-0.247,0.122,-1.238,46.265,-40.100,148.132
-0.274,0.168,-1.182,50.415,-49.011,150.085
-0.306,0.187,-1.122,50.964,-58.655,152.405
-0.313,0.240,-1.060,47.974,-68.054,154.297
-0.295,0.289,-1.035,45.044,-77.576,154.907
-0.279,0.291,-0.985,41.199,-86.304,153.564
-0.277,0.270,-0.942,37.415,-91.675,154.236
-0.292,0.280,-0.940,35.461,-93.079,157.471
-0.306,0.324,-0.944,34.363,-92.773,161.438
-0.316,0.361,-0.939,33.630,-92.590,163.574
-0.323,0.382,-0.937,33.875,-93.140,163.269
-0.309,0.392,-0.947,34.241,-94.116,161.987
-0.291,0.380,-0.929,35.339,-95.581,160.400
-0.293,0.371,-0.891,38.696,-97.107,159.851
-0.302,0.383,-0.881,41.382,-97.534,161.499
-0.325,0.396,-0.873,42.236,-98.083,165.588
-0.365,0.426,-0.869,43.274,-99.487,170.898
-0.408,0.470,-0.859,45.532,-101.746,176.270
-0.449,0.518,-0.817,49.683,-103.699,180.420
-0.487,0.566,-0.796,55.237,-103.577,182.861
-0.527,0.583,-0.767,60.669,-102.112,183.044
-0.576,0.591,-0.733,66.711,-99.915,182.251
-0.613,0.633,-0.703,75.317,-97.412,182.739
-0.657,0.667,-0.702,84.778,-95.154,184.082
-0.700,0.735,-0.689,95.581,-93.994,185.608
-0.725,0.801,-0.714,108.093,-94.543,186.157
-0.759,0.815,-0.680,122.253,-96.985,185.608
-0.835,0.787,-0.425,140.015,-100.769,182.068
-0.893,0.820,-0.161,147.949,-101.257,174.011
-0.885,0.917,-0.122,133.911,-96.375,162.720
-0.849,0.996,-0.250,108.032,-92.590,151.428
-0.819,1.016,-0.332,90.149,-95.276,142.822
-0.830,1.005,-0.302,86.304,-102.173,135.986
-0.813,1.040,-0.195,88.257,-108.154,129.944
-0.821,1.065,-0.088,85.693,-109.314,120.789
-0.803,1.082,-0.017,79.041,-105.347,108.887
-0.759,1.106,0.014,71.899,-98.450,96.985
-0.711,1.125,0.057,67.383,-90.210,85.754
-0.680,1.150,0.120,64.453,-81.360,75.867
-0.648,1.179,0.184,59.204,-71.960,67.139
-0.624,1.207,0.222,51.392,-62.012,59.631
-0.604,1.232,0.225,41.321,-52.368,52.490
-0.581,1.258,0.223,30.273,-43.762,46.143
-0.551,1.281,0.212,19.470,-36.133,39.673
-0.556,1.301,0.191,7.690,-28.320,32.288
-0.527,1.300,0.127,-3.296,-20.386,23.987
-0.489,1.284,0.035,-13.855,-12.268,14.893
-0.466,1.241,-0.055,-22.583,-5.066,4.333
-0.433,1.197,-0.152,-26.978,0.977,-5.676
-0.387,1.155,-0.250,-28.992,7.263,-14.221
-0.352,1.105,-0.354,-28.015,12.817,-20.752
-0.325,1.067,-0.440,-23.926,17.273,-25.024
-0.301,1.044,-0.490,-17.944,20.325,-27.466
-0.281,1.029,-0.516,-13.367,21.545,-29.358
-0.257,1.018,-0.553,-11.536,22.156,-30.884
-0.238,1.008,-0.573,-9.888,21.301,-31.677
-0.222,1.010,-0.572,-9.155,18.555,-31.433
-0.212,1.016,-0.567,-10.132,14.893,-31.738
-0.197,1.012,-0.565,-11.475,11.047,-33.447
-0.181,0.994,-0.554,-11.169,8.423,-35.706
-0.174,0.970,-0.532,-9.155,7.202,-38.025
-0.164,0.952,-0.509,-5.676,8.179,-39.612
-0.154,0.935,-0.496,-2.808,11.536,-40.039
-0.151,0.916,-0.490,-0.305,16.235,-40.283
-0.147,0.909,-0.510,0.671,20.935,-40.833
-0.136,0.904,-0.542,0.671,24.170,-41.748
-0.138,0.886,-0.563,0.488,25.757,-42.542
-0.144,0.876,-0.574,-0.671,25.452,-44.067
-0.141,0.872,-0.598,-3.235,23.926,-45.532
-0.140,0.859,-0.629,-5.798,21.362,-46.631
-0.139,0.840,-0.642,-7.690,17.639,-47.729
-0.141,0.830,-0.632,-7.812,13.855,-48.218
-0.140,0.825,-0.621,-7.935,10.986,-48.706
-0.134,0.811,-0.608,-8.362,9.338,-49.500
-0.124,0.798,-0.595,-7.690,9.033,-49.988
-0.116,0.788,-0.572,-6.226,10.010,-50.476
-0.112,0.785,-0.559,-5.310,12.146,-51.270
-0.100,0.780,-0.564,-5.066,14.587,-52.612
-0.089,0.765,-0.578,-5.005,16.235,-53.528
-0.080,0.742,-0.591,-4.333,17.456,-54.016
-0.073,0.729,-0.594,-3.357,18.066,-53.406
-0.063,0.724,-0.600,-2.625,18.311,-52.612
-0.052,0.723,-0.605,-2.380,17.761,-51.514
-0.042,0.724,-0.599,-2.380,16.235,-49.927
-0.026,0.735,-0.596,-3.174,14.404,-48.401
-0.007,0.736,-0.600,-5.371,12.939,-47.058
0.006,0.736,-0.599,-7.385,11.780,-46.021
0.024,0.735,-0.604,-9.033,11.047,-45.898
0.040,0.719,-0.628,-10.803,10.925,-46.326
0.049,0.695,-0.641,-10.925,10.803,-46.204
0.057,0.691,-0.634,-9.521,10.498,-45.471
0.062,0.692,-0.613,-6.226,10.193,-43.579
0.053,0.696,-0.576,-2.502,10.620,-39.978
0.035,0.720,-0.531,0.000,12.085,-35.400
0.008,0.757,-0.504,1.404,14.771,-31.189
-0.021,0.790,-0.486,0.732,16.785,-28.503
-0.050,0.827,-0.469,-2.441,17.212,-27.222
-0.072,0.863,-0.469,-6.531,16.968,-27.100
-0.090,0.878,-0.474,-10.864,15.930,-28.992
-0.103,0.883,-0.474,-13.794,15.137,-31.067
-0.113,0.889,-0.476,-14.893,15.442,-33.203
-0.117,0.897,-0.485,-14.465,17.456,-35.278
-0.118,0.901,-0.487,-12.878,20.508,-38.086
-0.122,0.914,-0.477,-10.071,23.682,-41.138
-0.122,0.935,-0.469,-7.874,27.039,-45.227
-0.116,0.948,-0.464,-7.812,29.602,-50.537
-0.103,0.954,-0.458,-10.010,30.884,-56.152
-0.092,0.961,-0.476,-14.465,31.189,-62.073
-0.069,0.953,-0.518,-22.034,30.518,-68.359
-0.038,0.919,-0.575,-28.809,29.236,-73.914
-0.005,0.887,-0.612,-30.579,27.588,-77.881
0.014,0.866,-0.616,-28.015,27.039,-79.773
0.025,0.864,-0.601,-22.766,27.588,-79.834
0.026,0.885,-0.568,-17.395,29.175,-79.041
0.007,0.925,-0.531,-14.099,30.823,-78.247
-0.023,0.975,-0.498,-14.343,31.860,-78.430
-0.053,1.016,-0.488,-17.456,32.349,-80.750
-0.082,1.056,-0.482,-22.461,32.593,-85.205
-0.100,1.096,-0.483,-27.954,32.776,-91.675
-0.100,1.101,-0.495,-33.386,33.630,-101.196

0.519,-0.244,-1.190,38.818,39.124,-38.879
0.519,-0.169,-1.078,36.865,50.354,-13.550
0.454,-0.046,-1.253,39.917,62.866,0.061
0.367,-0.028,-1.406,38.452,67.688,5.493
0.369,-0.061,-1.506,35.461,62.256,6.470
0.386,-0.126,-1.567,29.968,49.622,6.287
0.391,-0.174,-1.607,19.226,33.752,9.644
0.387,-0.163,-1.666,5.798,17.639,16.113
0.378,-0.158,-1.722,-5.676,1.648,20.935
0.381,-0.175,-1.717,-12.329,-12.329,22.766
0.393,-0.208,-1.686,-15.625,-22.339,23.743
0.423,-0.240,-1.659,-20.081,-27.527,26.062
0.462,-0.291,-1.659,-25.879,-31.189,29.053
0.502,-0.381,-1.662,-32.349,-36.438,32.410
0.503,-0.499,-1.679,-39.795,-44.373,38.452
0.451,-0.603,-1.670,-47.668,-55.481,48.340
0.516,-0.616,-1.519,-56.885,-69.641,62.988
0.414,-0.843,-1.821,-73.486,-86.426,80.261
0.459,-0.827,-1.922,-76.782,-103.943,104.309
0.446,-0.768,-1.909,-70.740,-128.418,128.479
0.394,-0.661,-1.861,-68.298,-147.827,147.949
0.332,-0.538,-1.808,-60.364,-161.560,160.828
0.310,-0.464,-1.764,-52.246,-170.654,166.077
0.284,-0.458,-1.697,-40.588,-176.270,166.199
0.253,-0.396,-1.638,-21.057,-180.664,165.894
0.269,-0.307,-1.509,-6.042,-185.608,165.833
0.257,-0.294,-1.400,-4.395,-184.326,164.185
0.212,-0.266,-1.325,-2.930,-176.819,162.781
0.178,-0.195,-1.302,2.014,-168.335,162.109
0.166,-0.108,-1.286,6.897,-162.537,161.865
0.152,-0.029,-1.271,9.949,-160.400,161.987
0.133,0.032,-1.257,9.216,-162.598,162.476
0.122,0.060,-1.228,3.967,-168.396,163.147
0.124,0.068,-1.189,-2.563,-176.208,164.856
0.121,0.068,-1.139,-8.362,-184.509,168.457
0.108,0.084,-1.066,-13.123,-192.017,174.683
0.081,0.141,-1.004,-16.846,-197.876,183.350
0.043,0.202,-0.946,-21.484,-202.209,191.772
-0.005,0.247,-0.890,-27.466,-205.505,198.059
-0.062,0.270,-0.832,-32.043,-208.435,201.904
-0.120,0.285,-0.774,-34.241,-211.548,203.979
-0.175,0.297,-0.696,-34.241,-214.050,204.956
-0.217,0.318,-0.612,-32.532,-215.210,205.200
-0.259,0.336,-0.533,-29.846,-213.684,206.665
-0.288,0.379,-0.463,-27.405,-208.801,209.473
-0.309,0.436,-0.418,-26.733,-201.477,212.402
-0.333,0.476,-0.404,-28.320,-192.749,213.623
-0.378,0.516,-0.383,-27.954,-184.753,211.792
-0.427,0.555,-0.361,-25.818,-178.162,206.543
-0.439,0.578,-0.363,-25.085,-172.241,199.219
-0.426,0.588,-0.386,-23.132,-166.382,191.956
-0.422,0.603,-0.399,-17.761,-160.278,186.829
-0.426,0.631,-0.383,-10.559,-154.175,183.838
-0.426,0.667,-0.347,-3.601,-148.010,181.458
-0.424,0.711,-0.310,2.014,-142.395,178.162
-0.418,0.734,-0.276,5.310,-136.841,173.096
-0.424,0.732,-0.223,8.057,-131.470,166.687
-0.430,0.761,-0.169,10.864,-125.671,160.217
-0.423,0.785,-0.144,11.658,-118.164,154.419
-0.421,0.822,-0.130,12.085,-110.107,149.841
-0.421,0.892,-0.100,13.733,-101.746,146.851
-0.429,0.973,-0.085,14.709,-93.750,144.226
-0.454,1.050,-0.086,13.184,-87.524,140.564
-0.468,1.146,-0.077,10.864,-83.374,134.766
-0.444,1.214,-0.058,9.155,-80.566,126.282
-0.416,1.262,-0.021,6.348,-79.346,115.051
-0.392,1.290,0.020,1.892,-78.552,100.830
-0.364,1.309,0.052,-2.808,-77.087,86.792
-0.333,1.321,0.079,-6.592,-73.792,74.890
-0.314,1.346,0.100,-9.644,-68.481,65.552
-0.291,1.376,0.117,-12.085,-61.646,57.556
-0.270,1.388,0.125,-13.672,-53.467,48.950
-0.252,1.395,0.133,-13.855,-45.410,39.734
-0.232,1.400,0.123,-13.184,-36.438,30.945
-0.197,1.393,0.115,-12.573,-27.344,23.010
-0.190,1.353,0.076,-13.489,-17.761,15.991
-0.169,1.347,0.055,-11.047,-10.071,9.583
-0.157,1.335,0.039,-8.606,-4.089,3.601
-0.140,1.317,0.027,-7.568,1.343,-2.197
-0.113,1.294,0.014,-7.629,6.470,-7.385
-0.084,1.268,0.001,-8.118,11.414,-13.428
-0.053,1.240,-0.026,-9.644,15.808,-19.958
-0.017,1.207,-0.065,-11.719,18.921,-26.123
0.032,1.176,-0.100,-12.878,21.545,-30.090
0.052,1.125,-0.141,-12.817,25.024,-31.372
0.065,1.104,-0.185,-8.728,28.992,-30.884
0.083,1.094,-0.209,-1.099,32.288,-30.579
0.080,1.078,-0.216,5.615,35.400,-30.945
0.089,1.088,-0.201,12.695,37.781,-31.250
0.093,1.087,-0.194,16.418,39.246,-31.494
0.086,1.077,-0.200,17.578,39.734,-31.494
0.090,1.076,-0.195,19.226,38.147,-31.372
0.089,1.062,-0.176,19.104,34.790,-31.616
0.084,1.063,-0.152,17.517,31.921,-31.067
0.084,1.089,-0.138,15.564,30.640,-30.151
0.075,1.112,-0.138,13.733,30.579,-31.128
0.071,1.128,-0.139,12.695,30.640,-34.180
0.077,1.125,-0.137,12.512,30.884,-38.696
0.084,1.110,-0.126,13.611,32.288,-43.823
0.084,1.081,-0.113,14.893,34.668,-49.316
0.079,1.052,-0.107,15.198,37.964,-54.321
0.081,1.032,-0.108,14.160,41.321,-58.167
0.087,1.026,-0.116,12.817,44.128,-60.974
0.096,1.019,-0.130,11.353,46.082,-63.293
0.092,1.000,-0.142,10.193,46.875,-65.002
0.083,0.993,-0.134,10.010,46.997,-65.918
0.079,1.007,-0.119,10.010,48.157,-66.284
0.077,1.024,-0.120,9.277,51.270,-66.895
0.077,1.037,-0.132,9.216,55.054,-69.458
0.072,1.028,-0.136,10.986,58.960,-74.463
0.068,1.005,-0.123,13.794,62.195,-80.017
0.076,1.001,-0.102,15.686,66.223,-84.534
0.095,1.010,-0.108,15.381,72.083,-88.989
0.125,1.008,-0.169,12.268,78.735,-93.994
0.156,0.981,-0.240,11.292,83.740,-99.915
0.184,0.934,-0.278,15.137,86.060,-106.079
0.206,0.881,-0.269,22.095,86.609,-111.267
0.227,0.846,-0.228,28.931,86.853,-114.197
0.248,0.835,-0.189,31.982,87.830,-115.173
0.270,0.828,-0.184,30.273,89.600,-115.295
0.289,0.811,-0.205,26.184,91.064,-115.906
0.308,0.800,-0.227,23.437,91.980,-116.577
0.318,0.797,-0.243,22.034,92.590,-117.371
0.330,0.793,-0.254,21.423,93.384,-119.080
0.339,0.781,-0.253,21.362,94.849,-121.704
0.350,0.771,-0.259,22.827,96.924,-125.061
0.369,0.747,-0.271,24.109,99.915,-128.723
0.389,0.708,-0.284,25.879,103.760,-131.653
0.401,0.669,-0.290,28.259,107.544,-133.484
0.413,0.636,-0.306,30.396,110.962,-134.399
0.434,0.610,-0.325,32.104,113.831,-133.362
0.455,0.591,-0.337,34.790,116.211,-130.493
0.461,0.581,-0.342,37.781,118.286,-126.526
0.459,0.583,-0.335,40.100,119.812,-121.704
0.453,0.593,-0.335,40.771,121.094,-116.882
0.438,0.599,-0.341,39.429,121.704,-113.220
0.426,0.597,-0.348,37.109,121.399,-110.779
0.413,0.595,-0.348,35.156,120.911,-109.802
0.400,0.591,-0.347,33.081,121.033,-110.168
0.387,0.576,-0.363,30.579,122.009,-111.755
0.386,0.555,-0.385,28.381,123.840,-113.770
0.383,0.534,-0.394,27.405,125.427,-115.479
0.375,0.517,-0.387,27.771,127.136,-116.821
0.369,0.510,-0.400,26.001,128.723,-118.225
0.378,0.492,-0.453,19.714,130.188,-119.873
0.400,0.438,-0.536,11.230,130.066,-123.108
0.424,0.364,-0.616,5.493,128.235,-127.747
0.453,0.293,-0.678,4.028,125.427,-131.104
0.493,0.218,-0.720,5.188,122.314,-132.751

0.454,0.026,-1.208,27.039,38.147,52.856
0.403,0.038,-1.182,20.691,34.119,55.786
0.427,0.104,-1.235,14.526,24.170,55.725
0.355,0.050,-1.291,2.075,11.536,54.260
0.344,0.007,-1.323,-10.376,-5.066,53.345
0.346,-0.035,-1.262,-15.442,-21.851,53.833
0.355,-0.078,-1.187,-16.052,-32.227,55.481
0.365,-0.122,-1.129,-14.465,-34.363,58.777
0.377,-0.136,-1.086,-9.033,-31.677,63.843
0.371,-0.151,-1.052,-1.160,-27.588,69.641
0.328,-0.177,-1.019,6.836,-24.170,75.745
0.291,-0.182,-1.005,12.573,-22.827,82.886
0.261,-0.184,-1.012,14.099,-24.414,89.417
0.269,-0.209,-0.924,10.986,-28.748,94.666
0.224,-0.150,-1.028,7.080,-36.133,98.816
0.212,-0.178,-1.025,-4.150,-40.283,102.234
0.216,-0.174,-1.035,-8.850,-46.570,104.492
0.214,-0.163,-1.052,-11.841,-52.002,106.995
0.205,-0.149,-1.071,-14.160,-55.847,109.558
0.220,-0.118,-1.073,-14.954,-58.533,112.183
0.186,-0.159,-1.059,-14.832,-59.265,115.479
0.187,-0.173,-1.117,-7.507,-59.448,120.361
0.263,-0.052,-1.024,4.883,-62.073,125.977
0.259,-0.153,-1.007,-3.662,-54.871,132.812
0.244,-0.146,-1.047,3.418,-44.617,142.883
0.187,-0.170,-1.021,18.860,-38.452,152.710
0.185,0.003,-1.070,33.569,-33.875,162.476
0.215,0.142,-1.129,36.743,-34.119,168.579
0.211,0.146,-1.091,29.968,-39.978,169.800
0.169,0.137,-1.080,26.672,-47.363,171.082
0.137,0.166,-1.063,24.414,-54.443,175.415
0.126,0.227,-1.037,21.729,-59.814,181.763
0.106,0.287,-1.024,20.386,-63.110,187.073
0.070,0.339,-1.006,20.569,-65.735,190.247
0.015,0.375,-0.947,21.057,-67.322,192.322
-0.034,0.426,-0.917,19.653,-67.932,192.932
-0.065,0.483,-0.934,14.954,-68.604,191.528
-0.086,0.511,-0.968,7.996,-71.045,189.209
-0.111,0.534,-0.982,2.380,-75.684,187.073
-0.143,0.562,-0.970,0.244,-82.275,184.509
-0.170,0.580,-0.961,-0.549,-88.379,182.068
-0.201,0.590,-0.953,-0.305,-92.285,181.335
-0.236,0.611,-0.924,1.526,-94.177,181.763
-0.275,0.643,-0.888,3.845,-94.299,181.763
-0.315,0.679,-0.857,5.676,-93.323,180.481
-0.338,0.728,-0.846,7.019,-91.614,176.636
-0.342,0.755,-0.847,8.179,-90.027,170.654
-0.334,0.775,-0.841,10.376,-89.783,163.513
-0.321,0.783,-0.828,13.916,-89.783,155.762
-0.297,0.778,-0.807,18.311,-89.478,148.621
-0.274,0.766,-0.792,23.437,-88.623,141.785
-0.255,0.755,-0.770,28.870,-87.097,135.986
-0.247,0.744,-0.756,33.752,-85.754,131.653
-0.254,0.725,-0.736,36.865,-84.839,128.235
-0.264,0.722,-0.705,38.147,-85.327,125.732
-0.267,0.733,-0.688,37.476,-86.792,123.596
-0.266,0.741,-0.672,34.973,-89.111,121.887
-0.271,0.746,-0.661,31.616,-92.041,120.300
-0.276,0.743,-0.648,28.931,-95.093,119.263
-0.278,0.742,-0.612,28.076,-98.022,118.042
-0.290,0.752,-0.560,28.320,-100.037,116.699
-0.303,0.767,-0.510,27.588,-100.647,115.540
-0.309,0.782,-0.466,26.001,-99.731,114.441
-0.313,0.804,-0.420,25.269,-97.412,114.075
-0.319,0.835,-0.380,25.513,-93.689,114.319
-0.327,0.872,-0.338,25.269,-88.684,114.502
-0.334,0.912,-0.308,24.414,-83.008,113.708
-0.342,0.955,-0.291,22.705,-77.454,111.938
-0.355,0.989,-0.276,20.813,-72.205,108.948
-0.371,1.015,-0.260,18.982,-67.017,105.774
-0.384,1.046,-0.242,16.724,-61.829,102.478
-0.389,1.083,-0.244,13.733,-56.396,98.022
-0.386,1.111,-0.257,9.216,-50.232,91.919
-0.385,1.126,-0.273,5.310,-44.128,84.534
-0.388,1.126,-0.299,2.441,-37.781,75.745
-0.385,1.124,-0.315,1.587,-31.677,65.430
-0.384,1.112,-0.340,0.671,-26.245,54.810
-0.374,1.113,-0.367,1.282,-21.912,45.227
-0.365,1.107,-0.371,2.197,-19.104,35.522
-0.361,1.095,-0.363,1.465,-16.907,26.306
-0.353,1.093,-0.359,-0.610,-14.099,17.944
-0.324,1.095,-0.366,-3.662,-11.047,9.521
-0.286,1.072,-0.389,-7.690,-8.423,1.099
-0.247,1.036,-0.422,-10.254,-5.615,-5.554
-0.214,0.994,-0.453,-10.071,-2.991,-10.315
-0.183,0.960,-0.461,-7.874,-0.854,-13.428
-0.158,0.937,-0.471,-4.150,2.075,-13.916
-0.141,0.931,-0.466,0.977,5.188,-13.245
-0.130,0.940,-0.450,4.700,8.179,-12.634
-0.110,0.943,-0.452,5.432,11.108,-12.207
-0.102,0.939,-0.465,4.333,13.794,-12.024
-0.100,0.948,-0.483,2.930,15.686,-12.207
-0.095,0.957,-0.507,1.160,16.602,-12.756
-0.097,0.966,-0.529,-0.244,16.357,-13.794
-0.113,0.979,-0.539,-0.549,15.625,-15.015
-0.131,0.990,-0.544,-0.427,14.893,-16.602
-0.145,0.999,-0.548,-0.183,14.282,-19.104
-0.154,1.002,-0.547,0.793,14.221,-21.851
-0.166,1.017,-0.536,2.502,14.709,-25.085
-0.181,1.025,-0.519,3.662,16.052,-28.687
-0.189,1.021,-0.500,4.700,17.822,-32.776
-0.199,1.025,-0.488,5.554,20.142,-36.682
-0.206,1.030,-0.475,5.798,22.705,-40.405
-0.208,1.025,-0.469,4.822,25.330,-43.762
-0.213,1.025,-0.470,3.723,28.137,-46.509
-0.222,1.017,-0.479,2.869,30.823,-49.316
-0.227,0.997,-0.493,2.197,33.936,-52.246
-0.221,0.991,-0.500,2.991,36.743,-55.603
-0.209,0.995,-0.500,4.761,39.490,-60.059
-0.195,0.994,-0.498,5.859,42.114,-65.369
-0.180,0.988,-0.499,6.104,44.739,-71.045
-0.164,0.983,-0.503,5.493,46.692,-76.355
-0.148,0.974,-0.516,4.639,48.218,-80.872
-0.123,0.954,-0.530,3.357,48.828,-85.144
-0.092,0.924,-0.549,2.686,49.377,-89.600
-0.057,0.883,-0.573,2.930,49.438,-93.628
-0.024,0.844,-0.594,3.662,49.866,-96.741
0.014,0.821,-0.609,4.578,50.598,-99.426
0.050,0.796,-0.641,5.066,51.025,-102.051
0.083,0.743,-0.675,5.493,50.537,-104.492
0.112,0.702,-0.688,7.324,48.889,-105.347
0.138,0.679,-0.677,11.597,46.265,-104.004
0.151,0.679,-0.645,14.893,43.091,-101.135
0.161,0.696,-0.617,15.076,40.405,-97.717
0.165,0.707,-0.618,11.536,38.208,-94.177
0.169,0.700,-0.631,5.615,35.767,-91.614
0.179,0.695,-0.654,0.610,33.325,-90.271
0.197,0.678,-0.679,-2.747,31.128,-90.454
0.215,0.648,-0.692,-4.822,29.053,-91.675
0.231,0.621,-0.699,-4.456,27.405,-92.285
0.247,0.589,-0.704,-2.563,26.550,-91.675
0.260,0.545,-0.692,0.854,25.635,-87.952
0.266,0.538,-0.652,5.798,25.269,-80.017
0.260,0.583,-0.584,11.230,25.208,-69.275
0.239,0.656,-0.528,12.329,25.818,-57.800
0.213,0.715,-0.511,7.812,27.344,-49.683
0.189,0.741,-0.524,0.793,28.870,-46.204
0.163,0.749,-0.545,-4.456,30.518,-46.936
0.147,0.744,-0.562,-6.409,32.410,-49.927
0.153,0.743,-0.563,-5.859,34.607,-53.772
0.159,0.728,-0.572,-5.981,37.170,-57.190
0.163,0.733,-0.585,-6.348,39.429,-59.265
0.166,0.738,-0.581,-5.737,40.710,-60.852
0.155,0.724,-0.573,-5.432,41.077,-62.195
0.139,0.716,-0.560,-5.615,40.588,-62.683
0.127,0.735,-0.539,-6.226,39.673,-62.256
0.126,0.766,-0.508,-7.263,38.757,-62.256
0.129,0.786,-0.475,-10.071,37.781,-63.171
0.129,0.801,-0.453,-15.808,38.086,-64.819

0.634,-0.157,-0.956,22.644,-1.099,46.509
0.695,-0.126,-0.818,30.884,-2.930,48.584
0.713,0.007,-0.775,31.189,-1.648,52.795
0.641,0.004,-0.820,15.503,1.831,54.504
0.639,0.043,-0.867,2.136,1.343,54.688
0.620,0.044,-0.862,-5.554,-1.892,51.514
0.618,0.043,-0.847,-12.146,-4.150,47.791
0.600,0.052,-0.863,-18.066,-5.249,44.250
0.581,0.024,-0.870,-21.851,-6.714,40.405
0.570,-0.021,-0.828,-21.240,-8.911,37.048
0.566,-0.091,-0.835,-20.691,-9.583,35.217
0.581,-0.135,-0.872,-19.531,-8.972,36.438
0.585,-0.162,-0.851,-14.038,-8.484,39.246
0.556,-0.202,-0.820,-8.301,-7.263,42.236
0.537,-0.260,-0.810,-4.089,-5.432,45.837
0.512,-0.351,-0.820,-0.854,-4.272,49.561
0.500,-0.412,-0.812,2.686,-5.554,54.688
0.589,-0.417,-0.625,5.188,-8.057,61.707
0.535,-0.454,-0.820,1.282,-9.338,69.702
0.541,-0.484,-0.826,-6.348,-11.597,78.796
0.544,-0.436,-0.836,-8.240,-14.404,87.708
0.512,-0.420,-0.863,-11.108,-17.273,94.666
0.498,-0.431,-0.909,-16.541,-19.226,100.342
0.498,-0.454,-0.981,-21.423,-20.874,105.896
0.485,-0.450,-1.015,-23.193,-22.766,110.596
0.473,-0.422,-1.017,-21.545,-24.902,114.014
0.477,-0.398,-1.000,-17.395,-25.879,116.638
0.454,-0.399,-0.998,-13.000,-24.780,118.774
0.438,-0.425,-0.973,-9.583,-22.522,121.887
0.413,-0.473,-0.901,-4.089,-19.653,126.648
0.411,-0.458,-0.877,1.343,-15.076,133.850
0.479,-0.372,-0.866,6.287,-9.155,143.311
0.494,-0.385,-0.848,10.437,-3.601,152.527
0.446,-0.391,-0.829,15.503,1.709,164.124
0.395,-0.348,-0.812,22.339,6.775,179.749
0.355,-0.242,-0.806,29.053,11.353,196.411
0.314,-0.136,-0.846,32.104,15.015,210.205
0.276,-0.053,-0.902,34.729,16.479,220.764
0.232,0.002,-0.909,41.016,15.198,228.394
0.181,0.038,-0.841,50.110,13.245,234.253
0.138,0.084,-0.755,57.129,14.038,239.319
0.112,0.142,-0.753,59.448,18.188,243.103
0.096,0.203,-0.782,59.021,22.705,244.934
0.064,0.259,-0.816,60.059,23.804,246.338
0.020,0.302,-0.827,62.378,20.691,247.253
-0.028,0.344,-0.805,66.223,14.038,248.840
-0.084,0.399,-0.770,69.824,6.409,251.831
-0.131,0.451,-0.758,70.374,-0.427,255.188
-0.168,0.482,-0.773,68.481,-5.493,258.545
-0.192,0.508,-0.808,66.528,-8.789,261.719
-0.217,0.532,-0.861,66.162,-11.719,264.282
-0.270,0.534,-0.902,68.176,-15.625,266.846
-0.362,0.558,-0.907,73.792,-20.508,270.386
-0.445,0.619,-0.881,81.299,-26.917,274.353
-0.501,0.720,-0.873,86.670,-34.729,274.780
-0.543,0.813,-0.866,89.661,-44.373,269.775
-0.583,0.844,-0.881,90.149,-56.763,258.911
-0.617,0.842,-0.868,91.370,-71.838,245.911
-0.645,0.846,-0.800,96.741,-88.196,233.582
-0.662,0.843,-0.697,102.722,-102.844,222.595
-0.677,0.801,-0.615,106.812,-113.831,214.233
-0.695,0.820,-0.514,111.267,-120.972,210.083
-0.694,0.879,-0.425,114.929,-124.329,207.581
-0.755,0.940,-0.355,110.596,-124.268,202.637
-0.825,0.975,-0.330,106.079,-123.047,196.472
-0.805,1.018,-0.221,109.375,-121.094,187.317
-0.823,1.059,-0.157,111.084,-118.896,175.842
-0.851,1.095,-0.103,107.300,-116.455,165.344
-0.916,1.158,-0.029,100.098,-114.197,155.762
-0.917,1.231,0.035,91.370,-110.046,143.982
-0.902,1.293,0.099,82.703,-103.760,129.944
-0.904,1.347,0.146,71.167,-95.642,113.708
-0.909,1.347,0.167,58.838,-85.938,95.215
-0.841,1.364,0.166,45.410,-74.829,76.660
-0.808,1.334,0.106,30.518,-62.439,58.960
-0.770,1.269,0.057,21.423,-50.415,41.016
-0.724,1.239,0.011,15.503,-39.001,26.306
-0.679,1.197,-0.037,11.414,-28.687,13.367
-0.641,1.151,-0.082,8.362,-19.653,1.221
-0.598,1.105,-0.135,7.568,-12.634,-8.301
-0.551,1.084,-0.167,10.193,-8.728,-16.602
-0.511,1.060,-0.155,11.597,-7.019,-23.499
-0.473,1.038,-0.156,9.583,-5.066,-27.954
-0.433,1.030,-0.154,7.202,-3.540,-30.823
-0.402,1.015,-0.158,4.150,-2.136,-33.691
-0.364,0.989,-0.178,1.221,-0.549,-36.011
-0.332,0.949,-0.209,-0.671,1.587,-37.048
-0.290,0.932,-0.208,0.732,3.418,-36.804
-0.282,0.909,-0.209,1.770,6.104,-34.973
-0.269,0.898,-0.218,3.418,9.521,-31.799
-0.246,0.903,-0.220,5.066,12.268,-27.527
-0.239,0.916,-0.220,5.981,14.832,-22.949
-0.243,0.937,-0.219,6.653,17.944,-19.226
-0.243,0.950,-0.225,5.676,20.630,-17.334
-0.236,0.955,-0.245,2.747,23.254,-17.212
-0.234,0.950,-0.276,-1.221,25.513,-17.822
-0.233,0.940,-0.306,-4.639,26.855,-19.165
-0.226,0.932,-0.335,-6.897,27.405,-19.836
-0.218,0.932,-0.343,-7.629,26.855,-19.958
-0.220,0.928,-0.352,-9.460,27.161,-21.240
-0.219,0.917,-0.372,-10.803,27.222,-22.888
-0.210,0.901,-0.397,-12.390,26.794,-24.841
-0.195,0.897,-0.415,-13.306,26.062,-25.940
-0.179,0.905,-0.423,-13.367,25.208,-26.245
-0.171,0.904,-0.434,-13.184,25.024,-26.794
-0.163,0.887,-0.446,-13.184,24.841,-27.466
-0.159,0.878,-0.460,-12.695,24.292,-27.832
-0.149,0.875,-0.468,-11.475,23.560,-27.832
-0.137,0.874,-0.471,-9.827,22.766,-27.527
-0.132,0.872,-0.474,-8.240,21.667,-27.344
-0.130,0.874,-0.479,-7.324,20.752,-27.039
-0.124,0.884,-0.479,-7.019,19.775,-26.306
-0.123,0.891,-0.477,-6.592,18.494,-26.367
-0.122,0.897,-0.469,-6.409,16.907,-27.466
-0.119,0.903,-0.451,-6.104,15.320,-29.114
-0.116,0.903,-0.431,-6.287,14.099,-31.128
-0.108,0.895,-0.419,-7.446,13.123,-33.447
-0.093,0.887,-0.415,-8.972,12.573,-35.217
-0.073,0.880,-0.424,-10.437,12.756,-36.377
-0.054,0.865,-0.445,-11.902,13.245,-36.804
-0.040,0.853,-0.464,-12.695,13.550,-36.072
-0.031,0.848,-0.477,-11.902,13.428,-34.851
-0.025,0.840,-0.485,-10.071,13.184,-33.386
-0.022,0.832,-0.484,-7.568,12.756,-31.189
-0.026,0.833,-0.473,-4.456,12.329,-28.259
-0.031,0.850,-0.456,-1.831,11.902,-24.841
-0.039,0.868,-0.443,-0.427,11.414,-22.034
-0.042,0.881,-0.444,-1.221,10.925,-20.081
-0.042,0.889,-0.443,-2.258,10.071,-19.226
-0.043,0.893,-0.443,-2.869,8.545,-19.226
-0.045,0.891,-0.441,-3.357,6.714,-19.714
-0.049,0.887,-0.433,-3.601,5.432,-19.897
-0.053,0.888,-0.426,-3.784,4.517,-19.592
-0.056,0.887,-0.421,-3.906,4.150,-18.921
-0.061,0.892,-0.420,-4.822,4.211,-18.250
-0.071,0.911,-0.415,-5.188,4.456,-17.212
-0.081,0.932,-0.407,-5.554,4.578,-16.846
-0.088,0.944,-0.392,-6.042,4.822,-17.944
-0.091,0.947,-0.385,-7.202,5.676,-20.020
-0.097,0.945,-0.381,-8.606,7.080,-22.705
-0.104,0.940,-0.383,-9.399,8.972,-25.146
-0.107,0.933,-0.387,-9.949,10.681,-27.344
-0.116,0.928,-0.388,-10.193,11.841,-29.175
-0.126,0.931,-0.383,-10.254,12.573,-30.457
-0.138,0.943,-0.371,-10.620,12.512,-31.555
-0.143,0.958,-0.347,-11.658,12.085,-33.020
-0.141,0.976,-0.336,-13.733,11.841,-34.790
-0.130,0.980,-0.345,-17.456,12.634,-37.720
-0.120,0.986,-0.366,-20.569,14.099,-41.260

0.218,0.065,-1.069,15.991,-4.883,7.996
0.242,0.047,-1.005,1.953,-7.629,12.390
0.255,0.118,-1.043,-0.671,-6.409,14.771
0.156,0.042,-1.098,-9.705,-5.188,16.357
0.173,0.004,-1.156,-14.893,-6.042,18.188
0.191,-0.046,-1.170,-14.038,-8.545,19.470
0.186,-0.090,-1.151,-12.207,-11.658,23.315
0.169,-0.095,-1.145,-13.672,-15.198,30.273
0.124,-0.065,-1.140,-16.174,-18.738,37.048
0.085,-0.039,-1.106,-16.968,-21.484,40.344
0.066,-0.035,-1.078,-17.578,-22.095,39.673
0.076,-0.034,-1.075,-17.334,-20.264,37.659
0.107,-0.058,-1.068,-15.320,-17.151,34.729
0.137,-0.110,-1.061,-11.169,-12.817,32.104
0.153,-0.169,-1.068,-7.202,-8.850,31.372
0.133,-0.224,-1.098,-4.211,-6.104,33.752
0.110,-0.262,-1.144,-3.235,-5.981,38.696
0.129,-0.253,-1.153,-3.235,-8.728,45.532
0.047,-0.281,-1.208,-6.104,-11.230,52.246
0.047,-0.237,-1.219,-6.897,-17.639,57.922
0.050,-0.141,-1.201,-1.587,-22.217,59.937
0.032,-0.100,-1.171,3.296,-22.705,56.213
0.034,-0.094,-1.136,6.958,-19.531,49.255
0.067,-0.094,-1.128,10.742,-13.855,40.894
0.122,-0.120,-1.119,14.709,-8.606,32.288
0.183,-0.191,-1.103,17.883,-4.761,26.184
0.251,-0.274,-1.091,19.348,-2.747,24.414
0.319,-0.312,-1.105,18.250,-2.747,29.175
0.354,-0.293,-1.117,16.113,-6.226,40.039
0.340,-0.242,-1.116,12.634,-12.695,54.382
0.298,-0.217,-1.102,6.470,-21.057,68.970
0.274,-0.216,-1.096,0.000,-28.809,80.078
0.266,-0.238,-1.086,-3.662,-34.485,87.585
0.241,-0.243,-1.056,-2.502,-37.231,92.896
0.212,-0.214,-1.010,0.854,-37.048,98.083
0.203,-0.168,-0.996,2.686,-34.119,103.271
0.211,-0.148,-1.023,2.014,-30.762,106.750
0.211,-0.161,-1.055,1.648,-28.870,109.314
0.205,-0.166,-1.072,3.235,-29.175,112.732
0.177,-0.153,-1.072,4.700,-30.518,118.530
0.129,-0.136,-1.044,3.845,-32.227,126.343
0.088,-0.115,-1.044,0.854,-33.569,135.254
0.056,-0.076,-1.046,-1.404,-34.790,142.517
0.028,-0.013,-1.057,-1.282,-35.889,147.156
-0.005,0.028,-1.073,-2.014,-37.231,149.353
-0.030,0.063,-1.092,-2.625,-39.490,149.963
-0.059,0.073,-1.104,-2.625,-42.847,149.536
-0.080,0.078,-1.123,-1.099,-46.326,149.597
-0.095,0.104,-1.135,1.892,-49.011,151.978
-0.115,0.121,-1.121,4.517,-50.720,154.785
-0.124,0.140,-1.127,5.310,-51.514,157.227
-0.134,0.168,-1.135,6.897,-52.612,159.058
-0.152,0.192,-1.114,8.789,-55.298,159.302
-0.166,0.224,-1.087,9.705,-58.777,159.058
-0.180,0.244,-1.058,8.728,-63.110,158.325
-0.193,0.251,-1.027,6.287,-68.665,157.349
-0.197,0.251,-1.007,3.662,-74.097,157.349
-0.193,0.261,-0.991,2.686,-78.186,157.898
-0.184,0.266,-0.960,2.869,-80.750,158.508
-0.187,0.264,-0.913,4.089,-81.909,158.508
-0.187,0.267,-0.876,5.554,-81.299,158.569
-0.183,0.273,-0.854,6.287,-78.979,159.668
-0.186,0.297,-0.834,7.629,-75.928,162.415
-0.190,0.323,-0.825,8.667,-73.181,163.940
-0.180,0.350,-0.821,8.606,-70.740,164.368
-0.184,0.372,-0.807,7.751,-68.970,163.879
-0.186,0.391,-0.806,5.066,-68.176,162.659
-0.175,0.417,-0.809,2.808,-68.237,160.767
-0.167,0.432,-0.783,1.160,-69.824,158.630
-0.162,0.438,-0.745,-1.892,-71.838,156.738
-0.166,0.435,-0.738,-7.080,-73.242,155.457
-0.181,0.436,-0.751,-11.536,-73.730,156.067
-0.195,0.462,-0.753,-12.756,-72.937,158.752
-0.220,0.526,-0.750,-10.376,-69.763,162.109
-0.235,0.569,-0.751,-7.141,-63.965,164.246
-0.243,0.613,-0.731,-4.761,-56.519,163.940
-0.244,0.665,-0.761,-2.625,-48.584,159.790
-0.229,0.691,-0.797,-2.258,-43.213,151.306
-0.219,0.695,-0.837,-2.258,-41.321,141.846
-0.214,0.666,-0.850,-1.953,-41.565,134.155
-0.212,0.649,-0.829,-0.732,-43.213,129.272
-0.200,0.647,-0.826,-1.953,-45.105,126.099
-0.184,0.668,-0.827,-7.202,-46.387,124.695
-0.177,0.682,-0.877,-12.085,-47.363,122.192
-0.168,0.700,-0.869,-15.137,-49.316,117.798
-0.159,0.654,-0.877,-16.174,-51.025,112.183
-0.165,0.626,-0.851,-15.747,-52.185,108.276
-0.184,0.643,-0.828,-13.611,-51.758,106.873
-0.181,0.649,-0.826,-15.747,-49.622,106.323
-0.177,0.619,-0.852,-19.714,-47.058,105.225
-0.183,0.600,-0.882,-20.752,-45.288,104.370
-0.196,0.596,-0.901,-19.470,-43.640,105.225
-0.208,0.624,-0.931,-17.395,-41.504,108.337
-0.246,0.681,-0.958,-15.198,-39.246,113.037
-0.287,0.752,-0.953,-12.695,-38.391,116.577
-0.309,0.824,-0.945,-13.245,-39.124,115.845
-0.314,0.877,-0.942,-17.151,-40.894,109.314
-0.302,0.889,-0.952,-22.583,-43.152,97.900
-0.273,0.849,-0.995,-29.785,-46.387,83.496
-0.239,0.757,-1.029,-33.630,-50.171,69.397
-0.207,0.683,-1.027,-29.236,-52.734,60.364
-0.189,0.661,-1.016,-21.057,-52.856,57.251
-0.192,0.657,-1.015,-13.367,-50.171,58.533
-0.195,0.671,-0.984,-6.348,-46.326,61.218
-0.210,0.729,-0.975,-0.549,-42.480,62.805
-0.212,0.773,-0.953,1.648,-41.443,58.960
-0.181,0.776,-0.938,0.061,-43.396,49.744
-0.131,0.736,-0.928,-2.014,-47.852,38.391
-0.088,0.660,-0.922,-3.601,-52.856,29.236
-0.044,0.571,-0.902,-2.319,-56.335,26.062
-0.008,0.513,-0.839,2.319,-58.289,29.175
0.014,0.509,-0.778,7.446,-57.800,37.415
-0.002,0.519,-0.753,12.451,-54.321,47.241
-0.034,0.556,-0.752,15.076,-49.500,57.678
-0.070,0.615,-0.768,17.700,-45.654,65.796
-0.099,0.643,-0.754,20.264,-45.471,69.031
-0.106,0.675,-0.739,21.057,-47.363,70.618
-0.108,0.697,-0.719,20.752,-49.194,72.021
-0.129,0.696,-0.684,21.606,-49.927,72.510
-0.157,0.703,-0.638,24.292,-48.767,72.937
-0.174,0.726,-0.599,28.259,-45.959,74.280
-0.194,0.762,-0.556,32.593,-42.664,75.500
-0.226,0.817,-0.512,35.522,-39.001,77.026
-0.260,0.884,-0.470,35.950,-35.400,77.454
-0.288,0.945,-0.458,32.043,-31.433,75.745
-0.303,0.990,-0.467,25.879,-28.259,70.923
-0.302,1.012,-0.470,18.982,-26.428,62.866
-0.301,1.025,-0.481,12.573,-25.269,53.345
-0.283,1.019,-0.496,5.981,-24.963,43.213
-0.254,0.990,-0.511,0.488,-24.231,34.790
-0.234,0.960,-0.528,-2.686,-22.278,28.931
-0.228,0.950,-0.540,-2.014,-19.775,26.062
-0.237,0.961,-0.531,-0.671,-17.456,24.231
-0.245,0.983,-0.526,-0.732,-15.564,22.095
-0.246,1.007,-0.543,-3.906,-13.794,18.188
-0.234,1.009,-0.594,-9.766,-12.451,11.597
-0.198,0.973,-0.660,-13.855,-12.207,2.502
-0.153,0.910,-0.693,-12.695,-12.634,-6.836
-0.103,0.862,-0.684,-6.958,-12.756,-15.564
-0.058,0.828,-0.672,-0.488,-11.414,-21.667
-0.018,0.799,-0.677,3.967,-9.033,-25.635
0.025,0.771,-0.682,6.042,-7.874,-28.381
0.064,0.739,-0.686,6.226,-7.568,-29.724
0.093,0.707,-0.695,5.737,-7.690,-29.541
0.118,0.688,-0.695,4.883,-7.874,-27.710
0.140,0.684,-0.700,4.028,-7.874,-24.475
0.154,0.675,-0.707,2.991,-7.629,-21.423
0.155,0.665,-0.707,2.502,-7.324,-19.226
0.152,0.667,-0.703,2.197,-7.263,-17.212

0.381,-0.403,-1.392,16.296,46.692,-23.071
0.483,-0.545,-1.321,18.982,43.823,-15.686
0.533,-0.608,-1.302,21.057,39.978,-0.732
0.438,-0.640,-1.317,13.855,35.583,20.142
0.387,-0.591,-1.326,5.005,27.161,38.208
0.358,-0.605,-1.342,-2.319,17.151,46.570
0.371,-0.693,-1.336,-10.437,6.104,52.307
0.353,-0.766,-1.353,-19.714,-3.540,62.317
0.312,-0.768,-1.419,-27.466,-10.864,76.111
0.272,-0.767,-1.441,-29.907,-17.944,89.294
0.235,-0.790,-1.393,-26.062,-24.170,99.365
0.235,-0.808,-1.367,-22.461,-27.527,108.765
0.247,-0.809,-1.358,-21.484,-29.907,119.507
0.247,-0.766,-1.319,-21.057,-33.264,131.470
0.235,-0.721,-1.276,-22.034,-37.781,142.456
0.224,-0.728,-1.259,-25.330,-43.640,151.489
0.218,-0.773,-1.257,-28.320,-51.392,160.889
0.198,-0.842,-1.270,-32.227,-60.181,174.561
0.144,-0.774,-1.245,-35.889,-70.374,192.993
0.084,-0.622,-1.222,-38.330,-81.482,210.754
0.095,-0.539,-1.031,-42.297,-91.614,222.778
-0.004,-0.433,-1.191,-47.424,-97.412,229.980
-0.028,-0.389,-1.161,-46.997,-100.586,233.093
-0.019,-0.312,-1.141,-45.715,-101.257,234.375
-0.006,-0.265,-1.159,-45.654,-99.060,235.596
-0.009,-0.218,-1.196,-47.241,-96.252,238.098
-0.047,-0.164,-1.245,-46.753,-95.154,242.371
-0.083,-0.073,-1.273,-42.542,-97.107,247.986
-0.115,0.019,-1.291,-37.231,-100.952,255.005
-0.149,0.116,-1.292,-31.494,-104.675,262.451
-0.180,0.212,-1.269,-24.292,-107.361,268.005
-0.212,0.284,-1.234,-17.090,-108.154,270.630
-0.238,0.346,-1.194,-10.803,-107.788,270.264
-0.249,0.419,-1.155,-5.554,-107.422,266.968
-0.244,0.475,-1.143,-3.357,-108.948,261.414
-0.242,0.480,-1.137,-4.944,-113.525,255.127
-0.255,0.489,-1.123,-7.385,-121.338,249.695
-0.275,0.499,-1.092,-11.047,-130.981,245.667
-0.280,0.500,-1.033,-15.808,-140.320,243.530
-0.310,0.488,-0.991,-20.264,-146.667,243.042
-0.365,0.499,-0.947,-22.888,-149.902,243.164
-0.423,0.526,-0.921,-24.536,-148.682,244.934
-0.457,0.568,-0.908,-25.696,-144.165,247.681
-0.497,0.627,-0.892,-24.353,-137.756,250.122
-0.532,0.699,-0.870,-20.447,-130.737,251.038
-0.561,0.742,-0.827,-14.893,-124.023,248.413
-0.577,0.768,-0.760,-7.935,-118.225,242.187
-0.596,0.797,-0.703,-2.075,-113.159,233.459
-0.607,0.826,-0.668,0.427,-108.643,224.854
-0.613,0.841,-0.638,-0.671,-105.103,217.407
-0.613,0.869,-0.616,-2.869,-102.295,212.341
-0.603,0.925,-0.599,-4.700,-99.976,208.984
-0.588,0.979,-0.587,-6.897,-98.022,205.017
-0.587,1.022,-0.570,-8.911,-96.130,199.097
-0.596,1.072,-0.526,-8.789,-94.971,190.735
-0.603,1.132,-0.466,-7.202,-93.689,179.749
-0.607,1.168,-0.394,-6.531,-91.675,166.321
-0.608,1.194,-0.335,-8.179,-88.196,151.306
-0.591,1.198,-0.312,-12.207,-81.665,136.108
-0.570,1.183,-0.326,-16.479,-72.754,122.131
-0.554,1.179,-0.354,-19.348,-62.317,110.474
-0.532,1.172,-0.394,-20.935,-51.331,100.891
-0.517,1.167,-0.456,-18.433,-39.551,92.285
-0.504,1.176,-0.488,-11.047,-29.968,82.947
-0.481,1.161,-0.519,-6.409,-21.484,73.853
-0.449,1.160,-0.578,-1.709,-13.000,66.650
-0.428,1.157,-0.609,4.456,-7.446,58.228
-0.412,1.137,-0.615,10.071,-4.944,48.889
-0.392,1.113,-0.615,13.489,-4.028,39.917
-0.377,1.087,-0.610,14.832,-4.395,31.372
-0.355,1.064,-0.600,13.733,-5.249,23.926
-0.327,1.047,-0.593,11.108,-6.714,17.639
-0.296,1.027,-0.600,7.812,-8.179,12.329
-0.276,1.008,-0.589,6.775,-10.132,7.996
-0.257,0.994,-0.566,7.202,-11.963,4.944
-0.238,0.975,-0.537,7.751,-12.695,2.502
-0.218,0.967,-0.505,8.484,-12.329,0.000
-0.198,0.951,-0.479,9.216,-10.681,-2.502
-0.175,0.941,-0.453,9.277,-8.240,-5.249
-0.139,0.929,-0.453,7.874,-4.761,-8.667
-0.104,0.910,-0.471,6.653,-0.732,-12.512
-0.077,0.890,-0.482,7.202,3.113,-15.442
-0.060,0.878,-0.485,9.277,6.165,-16.602
-0.047,0.870,-0.480,11.230,8.484,-17.212
-0.031,0.864,-0.490,11.597,10.254,-17.029
-0.015,0.858,-0.507,10.925,11.353,-15.869
-0.004,0.861,-0.517,10.193,11.658,-14.343
0.000,0.864,-0.528,9.399,12.268,-12.939
-0.003,0.863,-0.535,8.423,12.390,-12.146
-0.007,0.862,-0.535,7.263,12.634,-11.963
-0.006,0.863,-0.538,4.944,12.939,-12.573
-0.004,0.855,-0.553,2.197,13.489,-13.855
-0.005,0.847,-0.571,-0.061,14.038,-15.564
-0.003,0.845,-0.585,-0.610,14.709,-17.090
0.004,0.844,-0.595,-0.244,15.625,-17.883
0.011,0.836,-0.610,0.427,16.663,-18.860
0.017,0.819,-0.624,1.831,17.578,-19.897
0.025,0.804,-0.631,3.784,18.188,-20.630
0.036,0.797,-0.631,5.798,18.738,-20.996
0.044,0.798,-0.628,7.629,19.104,-20.569
0.047,0.794,-0.629,8.240,18.982,-20.325
0.044,0.789,-0.630,7.812,18.494,-20.020
0.041,0.789,-0.627,6.836,17.578,-19.348
0.042,0.789,-0.626,5.249,16.479,-18.738
0.042,0.789,-0.629,2.808,15.320,-18.127
0.040,0.791,-0.635,0.977,14.221,-17.456
0.040,0.796,-0.640,-0.549,13.062,-17.639
0.039,0.800,-0.639,-1.099,11.902,-18.433
0.036,0.800,-0.636,-1.343,11.108,-19.714
0.034,0.794,-0.636,-1.526,10.498,-21.423
0.036,0.793,-0.638,-1.587,9.949,-22.522
0.039,0.787,-0.642,-1.221,9.521,-22.461
0.037,0.781,-0.646,-0.977,9.460,-21.851
0.037,0.790,-0.652,-0.488,9.583,-20.325
0.039,0.805,-0.659,-0.488,9.949,-18.982
0.043,0.816,-0.667,-0.244,10.193,-19.104
0.043,0.821,-0.674,0.366,10.071,-19.653
0.043,0.825,-0.672,1.099,9.644,-20.935
0.040,0.834,-0.665,1.648,9.094,-22.339
0.037,0.833,-0.650,0.854,8.301,-24.475
0.037,0.834,-0.651,-0.671,7.690,-26.611
0.039,0.831,-0.650,-2.319,6.592,-28.687
0.040,0.832,-0.652,-3.418,4.761,-30.396
0.039,0.834,-0.651,-4.517,3.296,-31.555
0.031,0.840,-0.655,-5.615,1.953,-31.921
0.014,0.848,-0.663,-6.958,0.549,-31.921
-0.015,0.872,-0.671,-8.789,-1.099,-31.921
-0.056,0.912,-0.677,-11.719,-3.296,-32.166
-0.100,0.964,-0.694,-16.296,-6.592,-33.447
-0.152,1.019,-0.718,-23.376,-11.536,-36.377
-0.207,1.074,-0.727,-31.189,-18.921,-41.138
-0.260,1.128,-0.710,-39.246,-28.381,-48.401
-0.296,1.172,-0.679,-48.584,-38.391,-59.387
-0.300,1.197,-0.645,-59.082,-47.913,-73.303
-0.283,1.210,-0.625,-68.054,-55.176,-89.050
-0.255,1.183,-0.621,-75.134,-59.875,-107.117
-0.217,1.106,-0.635,-77.759,-62.195,-126.038
-0.174,1.009,-0.647,-74.097,-61.584,-143.311
-0.129,0.931,-0.642,-64.636,-57.983,-157.471
-0.087,0.876,-0.646,-51.941,-51.392,-167.114
-0.050,0.838,-0.646,-39.307,-43.457,-174.133
-0.011,0.785,-0.655,-29.358,-34.912,-179.199
0.038,0.723,-0.686,-21.240,-26.245,-181.702
0.095,0.692,-0.730,-13.428,-19.226,-181.824
0.155,0.677,-0.771,-7.019,-15.625,-180.542
0.208,0.654,-0.799,-2.808,-15.808,-179.138
0.241,0.635,-0.825,0.427,-18.372,-177.856
0.243,0.630,-0.851,3.662,-21.790,-175.171
0.228,0.647,-0.876,4.822,-24.963,-170.044

0.835,-0.950,-0.285,-36.072,-46.265,-41.199
0.839,-0.928,-0.133,-34.119,-43.274,-25.574
0.825,-0.849,-0.095,-28.320,-38.086,-14.709
0.746,-0.886,-0.109,-32.227,-28.931,-9.338
0.723,-0.917,-0.133,-32.410,-20.203,-6.470
0.719,-0.938,-0.125,-27.344,-14.709,-5.798
0.707,-0.968,-0.106,-24.109,-10.864,-5.493
0.701,-1.003,-0.061,-26.794,-7.385,-3.967
0.693,-1.057,-0.022,-33.630,-3.784,-1.465
0.694,-1.083,-0.012,-41.809,-0.061,1.465
0.692,-1.096,-0.020,-50.537,3.418,5.188
0.689,-1.136,-0.037,-57.434,6.897,9.766
0.699,-1.203,-0.056,-61.340,10.559,16.541
0.698,-1.290,-0.085,-62.500,14.099,26.001
0.716,-1.366,-0.106,-62.012,17.517,39.917
0.700,-1.380,-0.063,-60.303,21.057,57.617
0.705,-1.341,0.077,-59.631,25.635,75.684
0.626,-1.295,-0.048,-60.852,34.912,91.553
0.594,-1.284,-0.045,-63.416,39.856,104.309
0.608,-1.219,-0.057,-59.631,46.143,112.854
0.611,-1.155,-0.087,-53.955,53.162,116.943
0.603,-1.115,-0.130,-50.293,59.998,117.981
0.605,-1.082,-0.172,-46.082,65.857,117.981
0.618,-1.050,-0.228,-38.635,70.618,118.835
0.648,-1.011,-0.295,-31.677,73.547,120.911
0.673,-0.970,-0.346,-27.283,75.317,125.061
0.673,-0.898,-0.391,-23.865,76.721,131.287
0.676,-0.821,-0.405,-24.475,78.430,137.939
0.669,-0.757,-0.405,-30.640,80.750,143.799
0.666,-0.688,-0.422,-39.551,83.618,147.949
0.664,-0.628,-0.454,-50.720,84.778,149.597
0.673,-0.580,-0.502,-61.646,83.801,148.254
0.691,-0.550,-0.551,-67.322,80.200,145.386
0.709,-0.525,-0.603,-67.261,74.097,141.907
0.725,-0.502,-0.639,-63.538,65.613,138.916
0.720,-0.461,-0.670,-57.556,56.213,137.878
0.717,-0.412,-0.695,-54.382,47.241,138.855
0.729,-0.377,-0.723,-55.725,40.222,142.090
0.734,-0.330,-0.749,-58.594,34.912,145.996
0.718,-0.284,-0.753,-62.195,29.846,149.109
0.721,-0.222,-0.757,-68.665,25.940,151.672
0.709,-0.171,-0.784,-76.782,24.597,153.015
0.690,-0.117,-0.823,-85.083,24.597,153.442
0.677,-0.055,-0.866,-92.896,24.170,153.137
0.663,-0.021,-0.924,-101.990,23.132,151.672
0.652,0.023,-0.980,-107.666,20.691,149.658
0.642,0.072,-1.030,-109.497,16.602,147.095
0.633,0.121,-1.069,-107.849,10.925,143.555
0.632,0.171,-1.066,-102.112,3.296,138.916
0.630,0.201,-1.018,-95.276,-5.005,132.996
0.629,0.212,-0.952,-90.576,-12.512,126.526
0.628,0.206,-0.896,-88.562,-18.555,120.911
0.631,0.195,-0.870,-88.623,-22.522,117.432
0.633,0.184,-0.858,-89.905,-25.024,115.906
0.632,0.187,-0.848,-90.149,-27.283,116.272
0.616,0.210,-0.824,-88.074,-29.846,117.493
0.594,0.240,-0.801,-86.426,-32.410,119.202
0.577,0.286,-0.765,-83.069,-35.767,121.399
0.564,0.325,-0.718,-80.322,-38.513,123.779
0.557,0.356,-0.666,-77.942,-40.039,126.160
0.556,0.388,-0.636,-76.294,-38.696,129.456
0.544,0.431,-0.635,-74.280,-34.119,133.545
0.525,0.504,-0.657,-70.923,-27.283,138.123
0.502,0.583,-0.685,-66.284,-20.081,141.541
0.498,0.644,-0.681,-57.983,-14.465,141.357
0.479,0.673,-0.658,-47.302,-10.315,137.268
0.469,0.707,-0.622,-34.119,-8.118,130.798
0.468,0.734,-0.589,-24.719,-7.263,122.498
0.484,0.743,-0.562,-20.447,-6.775,113.159
0.497,0.727,-0.538,-20.142,-6.836,103.210
0.506,0.708,-0.512,-21.240,-7.263,93.811
0.519,0.703,-0.504,-24.170,-8.606,85.632
0.526,0.707,-0.529,-31.433,-10.742,79.285
0.532,0.699,-0.569,-42.542,-13.855,75.378
0.536,0.691,-0.581,-51.575,-17.639,73.425
0.538,0.691,-0.572,-56.335,-21.667,71.838
0.530,0.691,-0.555,-57.434,-25.146,68.909
0.524,0.687,-0.527,-56.274,-27.222,64.880
0.519,0.683,-0.504,-54.016,-27.222,61.157
0.512,0.683,-0.495,-52.795,-24.658,58.228
0.511,0.698,-0.502,-53.650,-19.958,56.702
0.521,0.694,-0.544,-54.993,-14.771,55.786
0.529,0.659,-0.594,-53.894,-9.888,54.688
0.526,0.636,-0.637,-48.035,-6.226,55.603
0.526,0.674,-0.672,-40.161,-3.296,58.411
0.512,0.722,-0.715,-32.593,-1.770,60.852
0.503,0.763,-0.746,-26.611,-1.953,61.035
0.501,0.784,-0.750,-20.874,-3.662,58.594
0.502,0.781,-0.721,-14.648,-5.798,53.589
0.501,0.782,-0.690,-8.423,-7.324,48.340
0.501,0.795,-0.657,-4.333,-6.836,45.105
0.505,0.810,-0.632,-2.319,-4.822,43.518
0.502,0.824,-0.617,-0.610,-1.770,43.274
0.496,0.829,-0.611,1.282,1.221,42.847
0.487,0.840,-0.614,3.723,3.296,41.870
0.477,0.854,-0.606,7.629,3.906,40.222
0.466,0.865,-0.581,12.085,3.052,36.865
0.459,0.860,-0.559,16.296,1.404,32.471
0.461,0.843,-0.545,19.775,-0.244,27.466
0.472,0.819,-0.523,23.071,-1.343,22.705
0.480,0.795,-0.493,26.917,-2.014,18.616
0.485,0.781,-0.472,29.663,-1.831,15.320
0.489,0.766,-0.467,30.518,-0.854,12.390
0.500,0.756,-0.458,30.396,-0.488,9.705
0.509,0.751,-0.448,31.250,-1.160,6.714
0.517,0.743,-0.433,31.555,-2.563,4.028
0.534,0.743,-0.409,31.433,-4.211,1.892
0.558,0.734,-0.388,30.151,-5.493,-0.183
0.572,0.706,-0.379,28.015,-5.249,-1.465
0.575,0.681,-0.382,26.794,-2.808,-2.136
0.585,0.666,-0.391,27.161,0.366,-2.441
0.601,0.651,-0.400,28.076,3.418,-2.197
0.614,0.641,-0.399,29.968,6.165,-1.038
0.620,0.640,-0.386,32.715,8.911,0.916
0.620,0.647,-0.368,34.851,11.414,3.418
0.621,0.660,-0.353,35.339,13.916,6.226
0.620,0.675,-0.367,33.875,16.052,7.690
0.621,0.677,-0.394,31.250,17.395,8.118
0.621,0.676,-0.406,29.724,17.395,7.996
0.617,0.679,-0.404,28.564,16.663,7.019
0.615,0.680,-0.400,26.794,16.174,5.615
0.613,0.680,-0.408,23.926,16.418,4.333
0.610,0.694,-0.431,21.057,16.602,3.235
0.615,0.712,-0.443,19.348,15.442,2.197
0.616,0.724,-0.446,19.226,13.550,0.488
0.610,0.736,-0.458,19.531,11.902,-1.587
0.615,0.741,-0.467,19.287,10.376,-3.479
0.623,0.741,-0.469,20.325,9.460,-5.615
0.627,0.734,-0.462,21.973,9.399,-8.240
0.629,0.730,-0.454,23.193,9.827,-11.536
0.634,0.732,-0.447,22.888,10.864,-14.404
0.642,0.729,-0.448,21.240,12.512,-16.663
0.646,0.719,-0.466,19.165,13.672,-18.982
0.651,0.701,-0.505,16.602,14.282,-20.874
0.652,0.700,-0.554,17.883,13.611,-21.484
0.651,0.706,-0.565,22.827,10.315,-21.790
0.661,0.695,-0.556,27.100,7.629,-21.240
0.665,0.683,-0.535,32.593,6.653,-19.531
0.659,0.686,-0.520,39.734,8.118,-17.029
0.654,0.695,-0.506,46.265,11.047,-14.832
0.647,0.716,-0.500,51.941,14.832,-13.000
0.636,0.743,-0.489,57.556,18.311,-12.024
0.624,0.764,-0.469,62.073,20.508,-12.207
0.608,0.764,-0.458,64.819,22.461,-12.695
0.595,0.776,-0.459,67.627,24.597,-12.146
0.583,0.803,-0.456,70.618,26.550,-11.414
0.578,0.842,-0.476,71.716,28.503,-11.353
0.575,0.870,-0.491,72.449,28.381,-13.733
0.570,0.879,-0.483,73.669,26.550,-19.287

0.204,0.311,-1.365,54.504,38.879,27.161
0.230,0.391,-1.193,56.030,34.363,46.509
0.188,0.523,-1.155,61.157,35.645,58.411
0.128,0.561,-1.161,61.646,37.537,61.523
0.153,0.490,-1.182,60.425,35.278,59.326
0.171,0.389,-1.178,63.354,30.273,57.007
0.154,0.353,-1.113,67.810,23.560,62.744
0.116,0.400,-1.049,65.125,14.954,74.463
0.063,0.456,-1.013,54.749,5.249,82.642
0.043,0.489,-1.052,40.344,-4.089,84.595
0.051,0.486,-1.055,29.236,-14.587,82.397
0.059,0.456,-1.034,23.560,-25.146,78.613
0.098,0.405,-1.005,19.226,-32.593,77.759
0.101,0.381,-0.980,16.785,-36.133,81.421
0.059,0.392,-1.000,13.977,-36.682,87.280
0.024,0.421,-1.037,12.756,-36.926,92.529
-0.010,0.446,-1.054,14.648,-37.659,94.910
-0.039,0.476,-1.075,17.639,-38.696,95.398
-0.047,0.464,-1.080,20.020,-40.039,94.360
-0.084,0.421,-1.157,24.414,-40.222,93.994
-0.083,0.421,-1.141,24.841,-43.823,95.764
-0.066,0.461,-1.085,31.311,-49.744,97.900
-0.079,0.523,-1.023,38.574,-53.894,98.267
-0.089,0.553,-0.994,41.260,-55.542,97.290
-0.096,0.535,-0.975,41.931,-55.664,96.069
-0.102,0.530,-0.959,45.349,-55.664,94.910
-0.101,0.521,-0.949,48.462,-56.458,94.116
-0.100,0.513,-0.942,49.622,-59.509,93.811
-0.106,0.501,-0.951,50.598,-65.613,94.299
-0.131,0.484,-0.937,49.683,-74.585,97.351
-0.161,0.478,-0.906,48.462,-83.252,101.746
-0.192,0.497,-0.859,49.316,-90.576,106.262
-0.225,0.500,-0.803,49.866,-96.069,109.375
-0.251,0.519,-0.762,48.828,-99.426,111.511
-0.270,0.550,-0.736,46.021,-101.318,113.037
-0.291,0.583,-0.737,42.297,-102.295,113.831
-0.311,0.598,-0.761,38.147,-103.088,113.892
-0.340,0.607,-0.778,35.645,-104.309,112.976
-0.359,0.608,-0.779,35.339,-106.018,111.267
-0.376,0.576,-0.795,35.889,-107.544,108.948
-0.407,0.543,-0.797,38.391,-107.544,107.971
-0.450,0.573,-0.788,44.434,-105.835,109.497
-0.481,0.628,-0.790,49.988,-102.844,111.389
-0.518,0.681,-0.785,53.711,-100.220,110.718
-0.548,0.733,-0.801,54.993,-99.854,106.567
-0.549,0.742,-0.805,54.565,-101.318,99.365
-0.539,0.742,-0.790,54.810,-104.492,90.088
-0.521,0.745,-0.756,55.298,-108.887,80.872
-0.510,0.711,-0.708,54.077,-113.647,73.364
-0.504,0.681,-0.672,51.514,-117.554,69.946
-0.504,0.671,-0.656,49.805,-119.385,71.594
-0.529,0.675,-0.630,49.927,-119.324,76.233
-0.567,0.722,-0.584,51.514,-118.042,80.994
-0.599,0.805,-0.555,51.025,-116.760,83.313
-0.627,0.873,-0.541,46.997,-116.455,81.787
-0.654,0.918,-0.552,41.260,-116.760,78.186
-0.660,0.950,-0.569,36.499,-117.126,74.219
-0.651,0.959,-0.580,33.386,-116.333,68.970
-0.643,0.946,-0.606,31.677,-114.563,61.951
-0.635,0.898,-0.622,32.288,-113.342,53.711
-0.625,0.848,-0.590,36.682,-113.342,46.509
-0.599,0.837,-0.556,41.321,-114.380,42.480
-0.570,0.823,-0.527,41.687,-115.967,40.710
-0.535,0.793,-0.552,39.063,-117.859,40.771
-0.537,0.815,-0.520,38.696,-119.934,41.687
-0.539,0.810,-0.511,39.917,-121.826,42.480
-0.540,0.818,-0.496,35.339,-122.681,43.823
-0.533,0.793,-0.491,32.349,-123.535,44.983
-0.533,0.798,-0.463,33.936,-125.122,44.617
-0.533,0.793,-0.417,35.156,-126.953,43.335
-0.518,0.805,-0.368,34.973,-127.869,42.236
-0.490,0.828,-0.350,31.433,-128.174,41.931
-0.455,0.810,-0.344,25.574,-127.625,41.870
-0.434,0.765,-0.354,21.545,-127.014,41.809
-0.429,0.708,-0.349,20.691,-127.075,42.236
-0.431,0.676,-0.321,23.254,-127.136,44.678
-0.434,0.693,-0.292,26.672,-125.916,50.476
-0.459,0.716,-0.265,27.893,-123.718,57.312
-0.492,0.750,-0.254,27.527,-120.239,64.636
-0.534,0.787,-0.249,28.259,-115.845,70.068
-0.573,0.816,-0.219,31.677,-111.389,71.228
-0.597,0.854,-0.178,35.217,-107.056,69.519
-0.600,0.896,-0.141,36.438,-103.210,66.895
-0.598,0.915,-0.110,34.485,-100.220,63.477
-0.600,0.931,-0.093,30.334,-97.900,59.631
-0.594,0.946,-0.096,25.269,-95.276,55.969
-0.583,0.932,-0.099,20.508,-92.285,52.002
-0.584,0.906,-0.089,18.799,-88.623,48.279
-0.580,0.903,-0.071,19.165,-84.290,45.410
-0.583,0.915,-0.048,19.470,-78.491,44.556
-0.593,0.955,-0.059,18.005,-72.083,44.373
-0.600,0.995,-0.091,14.465,-66.528,43.823
-0.604,1.022,-0.106,13.062,-62.256,41.870
-0.606,1.040,-0.099,14.221,-59.570,36.804
-0.591,1.042,-0.087,15.503,-57.190,29.785
-0.570,1.026,-0.062,15.747,-54.810,22.400
-0.550,1.013,-0.042,16.113,-51.758,16.907
-0.531,0.998,-0.039,14.526,-47.302,13.550
-0.520,0.983,-0.035,13.428,-42.114,11.719
-0.517,0.992,-0.030,13.245,-37.292,11.230
-0.513,1.010,-0.021,12.268,-32.654,10.620
-0.500,1.028,-0.014,10.437,-28.442,8.911
-0.486,1.039,-0.009,7.996,-24.658,5.554
-0.461,1.051,-0.018,4.883,-20.813,1.465
-0.427,1.053,-0.040,0.793,-16.663,-2.747
-0.397,1.037,-0.066,-2.930,-12.329,-6.409
-0.369,1.014,-0.097,-4.761,-8.728,-10.132
-0.333,0.995,-0.117,-4.578,-5.493,-12.878
-0.305,0.970,-0.126,-3.174,-2.563,-14.160
-0.284,0.960,-0.137,-2.380,0.549,-14.099
-0.267,0.953,-0.151,-1.953,3.845,-12.512
-0.258,0.959,-0.162,-1.404,6.470,-10.742
-0.251,0.981,-0.181,-1.648,8.789,-9.521
-0.239,0.992,-0.203,-3.296,10.132,-8.911
-0.221,0.996,-0.237,-5.249,11.292,-9.277
-0.206,0.987,-0.272,-5.432,12.939,-9.644
-0.199,0.972,-0.288,-2.686,14.038,-9.949
-0.189,0.970,-0.286,2.075,14.648,-10.071
-0.182,0.975,-0.272,6.165,15.625,-9.399
-0.195,0.968,-0.268,8.057,17.029,-8.362
-0.204,0.968,-0.265,8.179,18.066,-7.385
-0.208,0.970,-0.274,5.981,18.127,-6.348
-0.213,0.967,-0.285,3.174,17.700,-5.615
-0.224,0.960,-0.290,0.854,16.907,-5.310
-0.237,0.960,-0.297,-1.282,16.357,-4.822
-0.245,0.971,-0.308,-2.991,16.663,-4.517
-0.248,0.977,-0.327,-4.761,17.212,-5.066
-0.249,0.968,-0.349,-5.981,17.822,-6.165
-0.249,0.955,-0.366,-6.104,18.188,-7.751
-0.250,0.947,-0.380,-6.531,18.127,-8.911
-0.253,0.939,-0.392,-6.470,17.822,-9.521
-0.254,0.938,-0.407,-6.958,17.944,-9.766
-0.253,0.938,-0.424,-8.118,18.066,-10.437
-0.248,0.938,-0.444,-9.644,18.066,-11.414
-0.239,0.934,-0.461,-10.864,17.212,-13.306
-0.230,0.923,-0.466,-11.230,15.686,-15.198
-0.222,0.919,-0.460,-10.681,13.855,-16.663
-0.219,0.920,-0.451,-10.620,11.963,-17.578
-0.218,0.916,-0.446,-10.803,10.864,-18.372
-0.213,0.915,-0.442,-10.498,9.949,-18.921
-0.211,0.911,-0.438,-9.949,9.827,-19.836
-0.204,0.905,-0.436,-9.460,9.888,-20.691
-0.205,0.907,-0.427,-8.118,9.949,-21.179
-0.227,0.900,-0.424,-8.789,9.644,-21.057
-0.241,0.907,-0.419,-8.972,8.667,-20.386
-0.255,0.929,-0.399,-7.690,7.507,-20.203
-0.270,0.940,-0.365,-8.118,6.226,-20.996
-0.283,0.961,-0.333,-10.193,5.432,-22.095
-0.283,0.979,-0.325,-14.099,5.554,-24.353

0.644,-0.859,-0.821,18.738,24.780,-84.229
0.768,-0.861,-0.687,24.841,27.222,-73.364
0.733,-0.892,-0.712,25.757,26.245,-60.852
0.702,-0.917,-0.705,18.372,24.048,-48.279
0.709,-0.926,-0.661,10.986,18.494,-36.133
0.697,-0.982,-0.631,1.404,13.977,-25.940
0.688,-1.024,-0.630,-8.484,12.085,-15.259
0.677,-1.048,-0.645,-15.991,11.658,-4.211
0.666,-1.088,-0.668,-19.653,12.329,5.920
0.684,-1.148,-0.690,-17.090,14.282,16.479
0.684,-1.169,-0.701,-9.460,17.639,29.297
0.665,-1.144,-0.731,-3.174,24.292,43.213
0.643,-1.117,-0.785,4.639,30.273,57.129
0.597,-1.119,-0.815,14.099,32.898,69.763
0.567,-1.134,-0.810,25.024,32.043,82.825
0.544,-1.128,-0.798,35.706,33.569,97.778
0.518,-1.133,-0.758,30.396,28.442,114.929
0.528,-1.062,-0.769,23.193,24.963,132.446
0.517,-0.994,-0.815,15.259,22.156,146.484
0.500,-0.925,-0.837,8.606,19.226,156.250
0.484,-0.845,-0.822,7.385,17.639,162.781
0.462,-0.780,-0.811,10.864,18.921,166.626
0.466,-0.744,-0.812,16.785,23.743,169.250
0.486,-0.714,-0.821,25.574,31.067,172.729
0.490,-0.666,-0.843,36.194,39.856,178.345
0.478,-0.588,-0.871,45.288,48.035,185.669
0.459,-0.495,-0.894,50.415,53.589,193.420
0.424,-0.398,-0.920,51.819,54.993,199.951
0.388,-0.310,-0.961,49.194,51.636,203.674
0.362,-0.227,-1.013,43.884,43.457,205.078
0.347,-0.161,-1.058,37.109,31.494,204.651
0.334,-0.110,-1.086,31.189,17.029,202.942
0.313,-0.065,-1.080,27.466,2.136,200.623
0.293,-0.024,-1.060,23.193,-10.559,199.890
0.267,0.019,-1.053,18.066,-20.142,200.989
0.244,0.086,-1.047,14.038,-27.222,203.186
0.206,0.160,-1.067,10.803,-32.898,205.139
0.172,0.240,-1.101,7.263,-38.269,205.872
0.153,0.317,-1.123,5.249,-45.227,205.017
0.135,0.383,-1.116,3.113,-53.955,201.050
0.115,0.418,-1.101,-0.122,-63.660,194.641
0.113,0.426,-1.072,-3.967,-73.181,186.829
0.108,0.435,-1.037,-5.859,-81.055,179.565
0.121,0.429,-0.980,-8.606,-85.876,175.476
0.114,0.432,-0.975,-10.254,-86.731,174.988
0.106,0.447,-0.959,-9.583,-88.013,174.133
0.098,0.455,-0.941,-9.705,-89.355,173.584
0.088,0.469,-0.918,-8.728,-90.698,173.645
0.067,0.489,-0.897,-7.080,-92.346,174.072
0.054,0.521,-0.879,-5.493,-94.604,174.988
0.030,0.547,-0.827,-3.601,-97.900,175.415
0.023,0.568,-0.789,-3.113,-99.731,176.636
-0.007,0.587,-0.764,-0.610,-99.915,177.185
-0.035,0.626,-0.760,1.709,-98.755,177.551
-0.056,0.666,-0.756,3.845,-97.351,176.575
-0.065,0.713,-0.728,7.080,-97.107,174.072
-0.074,0.749,-0.693,10.132,-97.900,168.945
-0.085,0.763,-0.653,11.658,-99.731,161.743
-0.091,0.759,-0.642,9.827,-101.746,154.724
-0.081,0.736,-0.646,7.996,-103.943,149.475
-0.074,0.719,-0.608,11.108,-107.300,147.156
-0.077,0.740,-0.542,16.602,-109.558,148.804
-0.102,0.780,-0.476,21.118,-109.497,152.954
-0.111,0.848,-0.386,24.414,-109.436,156.921
-0.127,0.901,-0.314,23.132,-108.643,158.264
-0.144,0.935,-0.264,18.127,-106.079,157.227
-0.156,0.964,-0.227,11.536,-101.807,154.907
-0.168,0.996,-0.205,5.615,-95.886,152.527
-0.165,1.020,-0.193,0.793,-88.074,149.292
-0.156,1.043,-0.193,-1.160,-79.163,144.592
-0.150,1.049,-0.204,-0.549,-69.946,138.367
-0.149,1.054,-0.208,1.770,-61.279,131.531
-0.147,1.064,-0.207,3.967,-52.795,125.732
-0.142,1.068,-0.218,4.089,-44.739,120.972
-0.141,1.078,-0.249,2.808,-36.987,116.638
-0.138,1.071,-0.283,1.526,-31.189,112.122
-0.134,1.068,-0.306,1.099,-27.161,108.276
-0.134,1.074,-0.322,1.038,-24.353,105.347
-0.141,1.086,-0.341,-0.366,-22.461,103.027
-0.156,1.094,-0.358,-2.808,-21.423,100.037
-0.174,1.094,-0.375,-5.249,-21.606,96.252
-0.185,1.094,-0.382,-7.812,-23.010,92.163
-0.188,1.109,-0.375,-9.827,-24.597,88.074
-0.189,1.122,-0.373,-12.573,-25.513,83.557
-0.183,1.135,-0.370,-14.893,-25.879,77.820
-0.173,1.145,-0.374,-17.151,-25.696,71.228
-0.166,1.141,-0.386,-19.165,-25.208,63.782
-0.167,1.125,-0.417,-21.057,-24.658,55.847
-0.171,1.105,-0.440,-21.362,-24.658,48.645
-0.168,1.098,-0.460,-20.447,-24.902,42.969
-0.163,1.088,-0.476,-17.578,-25.085,38.330
-0.156,1.079,-0.469,-13.428,-25.574,34.119
-0.153,1.075,-0.448,-7.568,-25.208,30.029
-0.152,1.071,-0.404,-1.648,-23.682,25.146
-0.141,1.072,-0.358,2.502,-20.752,19.836
-0.118,1.080,-0.321,4.944,-16.602,14.221
-0.090,1.089,-0.300,5.249,-11.719,8.301
-0.072,1.082,-0.302,3.418,-6.775,2.136
-0.058,1.054,-0.324,0.305,-2.930,-3.174
-0.047,1.021,-0.356,-2.136,-0.488,-6.287
-0.036,0.992,-0.368,-2.625,0.427,-8.362
-0.024,0.974,-0.363,-2.258,0.549,-8.667
-0.019,0.968,-0.354,-2.319,0.549,-8.057
-0.012,0.972,-0.350,-3.784,1.038,-6.897
-0.003,0.984,-0.360,-5.798,2.075,-6.165
0.005,0.994,-0.376,-7.629,3.113,-6.042
0.012,1.011,-0.389,-8.850,4.395,-6.470
0.012,1.025,-0.400,-9.094,5.981,-7.751
0.004,1.024,-0.413,-8.484,7.996,-10.132
0.000,1.018,-0.432,-7.568,10.681,-13.000
-0.003,1.013,-0.458,-6.042,13.123,-15.320
-0.001,1.000,-0.489,-3.906,14.648,-17.944
0.006,0.986,-0.508,-0.549,14.954,-19.897
0.015,0.976,-0.508,3.784,14.038,-21.179
0.016,0.964,-0.498,7.324,12.939,-21.973
0.018,0.960,-0.477,9.155,11.780,-22.278
0.025,0.958,-0.460,9.216,11.108,-22.522
0.033,0.950,-0.447,7.690,10.620,-23.315
0.041,0.943,-0.442,6.531,10.742,-24.170
0.051,0.935,-0.442,5.371,11.292,-25.085
0.062,0.931,-0.447,4.761,12.573,-25.757
0.071,0.926,-0.445,4.944,13.489,-26.550
0.075,0.923,-0.441,5.371,14.038,-27.283
0.075,0.922,-0.434,5.615,14.648,-28.015
0.079,0.919,-0.439,5.127,15.198,-28.564
0.087,0.909,-0.447,4.944,15.259,-29.541
0.095,0.899,-0.448,5.554,14.954,-30.334
0.097,0.894,-0.441,5.981,14.893,-31.067
0.098,0.889,-0.436,5.493,15.137,-31.555
0.104,0.895,-0.437,3.662,15.808,-31.860
0.111,0.897,-0.445,2.014,16.602,-32.410
0.120,0.895,-0.457,0.122,16.663,-33.752
0.126,0.892,-0.467,-1.648,16.113,-35.522
0.131,0.882,-0.472,-3.113,15.198,-37.476
0.138,0.867,-0.476,-4.761,14.038,-39.612
0.145,0.848,-0.491,-5.981,12.939,-40.710
0.150,0.829,-0.506,-6.714,11.658,-40.771
0.157,0.823,-0.518,-6.348,10.315,-39.673
0.165,0.818,-0.523,-4.517,8.789,-37.537
0.168,0.818,-0.513,-1.526,7.568,-34.973
0.169,0.821,-0.493,2.502,7.324,-32.593
0.167,0.832,-0.469,5.859,8.606,-30.457
0.165,0.840,-0.455,8.545,11.169,-29.236
0.160,0.850,-0.446,9.521,13.916,-28.931
0.158,0.870,-0.441,9.460,15.991,-28.748
0.163,0.884,-0.446,8.118,17.517,-28.931
0.173,0.890,-0.453,6.165,18.616,-29.968
0.183,0.891,-0.456,4.761,18.860,-31.616
0.195,0.890,-0.459,2.869,18.616,-33.997

0.646,-1.461,-0.565,-7.141,36.438,-108.215
0.689,-1.407,-0.546,7.751,43.640,-84.717
0.655,-1.283,-0.529,11.841,41.138,-47.729
0.551,-1.178,-0.484,5.371,41.199,-17.639
0.460,-1.031,-0.499,3.113,47.485,-8.606
0.434,-0.992,-0.565,3.906,51.758,-16.296
0.475,-1.074,-0.570,0.671,45.105,-28.320
0.511,-1.151,-0.520,-2.808,34.302,-36.743
0.545,-1.281,-0.498,-6.714,29.236,-41.626
0.630,-1.473,-0.570,-14.587,28.809,-40.222
0.711,-1.607,-0.609,-19.226,27.039,-29.114
0.725,-1.620,-0.595,-20.874,23.560,-10.498
0.710,-1.560,-0.597,-23.193,22.156,9.521
0.672,-1.494,-0.607,-21.667,23.376,25.269
0.629,-1.464,-0.611,-14.343,25.208,34.668
0.595,-1.478,-0.616,-3.784,25.391,41.748
0.604,-1.587,-0.653,6.470,22.644,50.903
0.666,-1.645,-0.633,12.268,16.052,66.895
0.677,-1.633,-0.593,14.648,8.179,89.294
0.707,-1.614,-0.443,8.789,1.343,114.990
0.623,-1.561,-0.557,1.343,-3.418,141.052
0.585,-1.509,-0.557,-9.094,-4.822,165.527
0.572,-1.415,-0.584,-10.132,-6.226,184.875
0.569,-1.362,-0.617,-6.958,-6.226,198.181
0.567,-1.309,-0.607,-1.465,-5.310,207.947
0.534,-1.257,-0.592,5.737,-2.625,215.820
0.489,-1.186,-0.595,13.245,1.282,223.938
0.467,-1.116,-0.612,19.836,4.700,232.422
0.461,-1.079,-0.638,24.780,5.676,239.990
0.474,-1.016,-0.647,28.931,3.540,247.070
0.462,-0.927,-0.643,34.363,-0.916,254.395
0.431,-0.822,-0.636,38.513,-6.836,260.437
0.413,-0.750,-0.632,39.368,-13.306,265.320
0.415,-0.700,-0.620,37.476,-20.264,269.104
0.414,-0.647,-0.610,34.485,-26.794,271.912
0.383,-0.570,-0.612,31.616,-32.532,274.048
0.344,-0.461,-0.597,29.175,-38.757,274.658
0.308,-0.336,-0.562,26.367,-45.166,272.400
0.288,-0.227,-0.525,20.935,-49.805,266.113
0.292,-0.146,-0.504,13.184,-52.979,255.371
0.328,-0.091,-0.508,3.784,-55.420,242.187
0.369,-0.071,-0.537,-6.226,-57.495,227.234
0.410,-0.078,-0.566,-12.634,-59.875,212.463
0.450,-0.090,-0.582,-13.123,-62.256,199.829
0.478,-0.083,-0.568,-8.789,-64.209,191.162
0.499,-0.058,-0.536,-4.700,-64.941,187.195
0.501,-0.001,-0.513,-2.869,-63.354,188.049
0.500,0.082,-0.490,-3.235,-61.707,190.125
0.503,0.142,-0.489,-7.874,-59.448,192.261
0.516,0.186,-0.483,-12.390,-57.617,193.115
0.519,0.224,-0.478,-14.160,-56.091,192.627
0.516,0.251,-0.471,-14.160,-54.443,190.552
0.501,0.284,-0.449,-12.878,-52.490,187.683
0.493,0.330,-0.425,-11.902,-49.744,184.631
0.487,0.374,-0.423,-12.817,-46.570,180.847
0.479,0.406,-0.452,-16.907,-44.067,177.002
0.475,0.437,-0.499,-22.339,-43.579,173.584
0.466,0.466,-0.565,-26.917,-45.593,170.837
0.454,0.498,-0.605,-29.236,-50.415,168.518
0.441,0.550,-0.616,-28.992,-56.091,166.382
0.427,0.618,-0.606,-26.855,-61.035,164.124
0.412,0.698,-0.578,-24.597,-64.758,161.438
0.398,0.765,-0.543,-22.644,-66.711,156.677
0.393,0.814,-0.506,-22.034,-67.200,149.475
0.397,0.844,-0.483,-22.339,-67.078,139.404
0.406,0.845,-0.467,-23.071,-67.322,126.648
0.416,0.827,-0.447,-24.231,-68.054,113.342
0.430,0.801,-0.427,-25.085,-70.068,100.647
0.432,0.785,-0.407,-26.917,-72.998,89.905
0.441,0.772,-0.411,-33.203,-76.294,83.008
0.445,0.751,-0.435,-41.382,-79.407,78.918
0.441,0.738,-0.449,-47.852,-83.557,77.576
0.427,0.739,-0.458,-53.284,-87.280,79.285
0.403,0.768,-0.465,-56.335,-88.623,83.618
0.371,0.823,-0.453,-56.580,-88.928,87.097
0.337,0.869,-0.431,-55.542,-88.501,87.463
0.308,0.915,-0.386,-52.490,-87.952,84.106
0.286,0.945,-0.335,-49.133,-87.708,77.209
0.282,0.950,-0.294,-47.974,-87.158,68.542
0.286,0.926,-0.255,-48.157,-86.304,59.631
0.285,0.901,-0.222,-48.218,-84.534,52.673
0.280,0.880,-0.213,-50.110,-81.604,48.889
0.279,0.870,-0.227,-53.833,-77.515,48.828
0.272,0.874,-0.240,-56.946,-73.792,51.575
0.257,0.905,-0.246,-58.289,-70.190,56.091
0.239,0.955,-0.238,-57.922,-67.322,59.143
0.212,0.984,-0.215,-57.129,-65.063,58.838
0.197,1.014,-0.185,-55.725,-63.049,54.993
0.179,1.018,-0.155,-55.847,-60.913,49.072
0.177,1.016,-0.141,-58.960,-57.861,44.128
0.184,1.006,-0.155,-63.354,-53.711,41.199
0.193,0.991,-0.185,-68.237,-49.500,40.283
0.191,0.989,-0.217,-70.435,-45.898,41.931
0.179,0.992,-0.248,-69.153,-43.396,44.861
0.168,0.996,-0.264,-65.308,-42.236,47.913
0.150,1.017,-0.260,-58.228,-41.565,50.415
0.135,1.048,-0.247,-49.927,-40.710,52.673
0.119,1.077,-0.224,-42.480,-38.879,54.077
0.107,1.100,-0.203,-35.706,-35.828,54.016
0.100,1.124,-0.173,-29.114,-31.433,52.490
0.103,1.147,-0.147,-23.987,-26.367,49.927
0.114,1.166,-0.128,-19.714,-20.447,46.448
0.130,1.180,-0.127,-17.517,-14.526,42.603
0.145,1.191,-0.144,-16.785,-8.911,38.391
0.152,1.196,-0.171,-15.869,-4.944,33.386
0.153,1.189,-0.205,-13.794,-2.869,27.344
0.165,1.173,-0.207,-10.254,-3.174,20.874
0.187,1.161,-0.187,-4.883,-4.639,14.648
0.211,1.143,-0.161,-0.732,-6.104,8.850
0.240,1.122,-0.137,2.258,-6.775,4.761
0.270,1.109,-0.106,5.249,-6.042,2.319
0.290,1.101,-0.077,8.118,-3.967,0.549
0.303,1.089,-0.059,9.460,-0.427,-1.099
0.317,1.079,-0.057,9.338,4.028,-2.991
0.333,1.068,-0.067,8.301,8.606,-4.822
0.349,1.053,-0.083,6.897,12.329,-6.531
0.362,1.034,-0.101,5.188,15.137,-8.362
0.372,1.014,-0.112,3.784,17.151,-9.949
0.373,1.005,-0.136,2.686,18.921,-10.437
0.377,0.991,-0.165,1.526,20.569,-10.559
0.388,0.986,-0.193,1.038,21.729,-10.681
0.399,0.980,-0.218,2.197,22.400,-11.108
0.409,0.971,-0.241,4.028,22.705,-12.085
0.419,0.960,-0.253,6.226,22.278,-13.306
0.425,0.951,-0.258,8.484,21.423,-14.221
0.432,0.944,-0.258,9.460,20.874,-15.381
0.437,0.935,-0.265,9.460,20.752,-16.602
0.441,0.914,-0.279,8.484,21.057,-17.883
0.443,0.891,-0.289,8.362,21.179,-19.104
0.450,0.867,-0.295,9.216,21.118,-19.592
0.457,0.857,-0.296,11.047,20.874,-19.104
0.456,0.856,-0.303,12.329,20.508,-18.005
0.457,0.860,-0.307,12.939,19.287,-16.296
0.459,0.869,-0.299,13.672,17.212,-14.893
0.454,0.881,-0.282,14.221,15.320,-14.587
0.448,0.893,-0.278,13.367,14.526,-15.503
0.448,0.887,-0.292,11.536,14.099,-17.395
0.457,0.873,-0.300,9.888,13.672,-20.203
0.467,0.859,-0.299,10.315,13.062,-22.949
0.472,0.841,-0.300,10.681,12.878,-25.513
0.474,0.826,-0.306,10.864,12.634,-26.428
0.480,0.814,-0.312,11.658,12.268,-26.245
0.479,0.812,-0.302,14.038,11.353,-24.780
0.470,0.828,-0.281,16.418,10.559,-22.217
0.449,0.852,-0.254,18.372,10.254,-19.287
0.425,0.884,-0.230,19.165,10.498,-16.357
0.399,0.917,-0.213,19.348,11.658,-14.282
0.371,0.956,-0.190,20.813,13.733,-12.939
0.349,1.002,-0.166,22.766,16.663,-13.123

0.591,-0.077,-0.770,-4.089,-3.174,25.879
0.715,-0.139,-0.643,-1.953,-2.869,21.362
0.766,-0.168,-0.625,2.319,-3.418,20.508
0.704,-0.222,-0.626,-1.404,-1.587,23.804
0.736,-0.236,-0.649,-6.836,0.366,30.762
0.729,-0.256,-0.637,-7.690,1.831,35.828
0.706,-0.252,-0.611,-5.310,4.578,38.330
0.722,-0.270,-0.631,-6.409,9.399,38.696
0.744,-0.342,-0.694,-8.850,13.672,36.926
0.758,-0.438,-0.729,-9.644,13.245,36.011
0.768,-0.517,-0.792,-12.146,9.521,37.842
0.771,-0.557,-0.856,-16.357,3.784,42.908
0.761,-0.561,-0.865,-18.738,-3.296,49.133
0.737,-0.567,-0.838,-19.104,-9.521,53.894
0.727,-0.602,-0.812,-18.494,-13.916,56.519
0.727,-0.638,-0.806,-15.625,-16.418,57.922
0.722,-0.690,-0.792,-12.146,-18.372,59.692
0.720,-0.777,-0.761,-8.972,-20.996,63.721
0.721,-0.869,-0.731,-8.545,-23.621,72.205
0.715,-0.864,-0.689,-12.085,-25.818,85.876
0.679,-0.793,-0.671,-17.578,-26.489,102.356
0.624,-0.730,-0.686,-23.682,-26.245,116.760
0.603,-0.678,-0.784,-28.442,-25.330,127.197
0.584,-0.653,-0.765,-32.043,-22.644,133.118
0.615,-0.626,-0.759,-30.334,-22.034,134.949
0.662,-0.593,-0.751,-25.085,-20.203,134.827
0.660,-0.598,-0.787,-20.447,-16.052,135.498
0.639,-0.620,-0.837,-15.930,-11.230,140.869
0.620,-0.593,-0.864,-8.728,-7.629,150.208
0.603,-0.515,-0.871,1.587,-5.920,161.804
0.580,-0.437,-0.851,9.705,-6.042,171.509
0.547,-0.358,-0.819,16.357,-7.629,177.368
0.528,-0.276,-0.793,19.592,-10.132,181.274
0.513,-0.218,-0.775,17.334,-12.329,183.655
0.495,-0.170,-0.779,12.146,-13.977,185.852
0.477,-0.122,-0.800,6.592,-15.930,188.171
0.456,-0.059,-0.820,1.099,-18.982,190.735
0.437,0.011,-0.849,-4.456,-23.010,193.115
0.424,0.091,-0.879,-10.132,-27.710,195.190
0.408,0.179,-0.892,-13.977,-33.875,195.129
0.392,0.250,-0.889,-18.738,-40.833,193.604
0.370,0.318,-0.904,-26.184,-46.814,192.261
0.351,0.387,-0.941,-33.875,-52.917,190.063
0.341,0.443,-0.947,-39.917,-61.035,185.120
0.321,0.485,-0.933,-45.471,-69.702,178.528
0.309,0.511,-0.912,-50.354,-77.454,171.448
0.303,0.531,-0.879,-53.955,-83.191,164.978
0.315,0.557,-0.815,-56.091,-87.036,158.936
0.315,0.578,-0.804,-59.509,-87.097,155.273
0.311,0.595,-0.788,-60.974,-86.243,151.672
0.290,0.601,-0.772,-61.768,-85.632,148.010
0.272,0.611,-0.746,-59.509,-85.083,144.897
0.265,0.623,-0.715,-55.786,-84.473,142.090
0.256,0.633,-0.682,-52.551,-83.191,139.832
0.245,0.652,-0.668,-50.842,-80.627,138.611
0.238,0.677,-0.674,-51.270,-76.965,138.794
0.227,0.717,-0.687,-53.284,-73.608,139.099
0.213,0.755,-0.700,-55.603,-71.411,138.855
0.198,0.785,-0.700,-57.312,-70.618,138.000
0.190,0.814,-0.690,-57.922,-70.801,136.108
0.177,0.839,-0.675,-56.763,-71.533,134.094
0.168,0.863,-0.644,-53.223,-72.754,132.751
0.157,0.880,-0.600,-47.241,-73.364,132.751
0.140,0.913,-0.550,-38.574,-72.449,134.277
0.122,0.958,-0.490,-29.114,-70.374,136.902
0.107,1.008,-0.444,-20.935,-66.589,139.709
0.083,1.048,-0.404,-13.916,-61.829,140.808
0.055,1.087,-0.372,-7.935,-56.091,139.954
0.032,1.136,-0.353,-3.906,-49.316,137.146
0.019,1.182,-0.349,-1.526,-42.480,132.202
0.013,1.198,-0.349,-0.671,-36.194,124.573
0.012,1.203,-0.350,0.610,-30.762,115.540
0.015,1.214,-0.354,2.136,-26.245,106.018
0.021,1.223,-0.367,2.441,-22.888,95.703
0.026,1.222,-0.388,1.343,-20.447,84.900
0.034,1.204,-0.416,-0.549,-19.348,73.792
0.048,1.189,-0.441,-2.441,-19.958,63.660
0.051,1.168,-0.447,-2.808,-21.118,52.917
0.063,1.153,-0.433,-1.282,-22.705,41.870
0.084,1.131,-0.414,-0.244,-23.804,31.128
0.118,1.107,-0.405,-0.488,-23.926,21.240
0.154,1.075,-0.412,-1.709,-22.949,12.329
0.184,1.032,-0.412,-2.380,-21.973,4.639
0.210,1.004,-0.404,-1.587,-21.667,-1.282
0.230,0.979,-0.386,-0.610,-21.423,-4.944
0.249,0.959,-0.365,0.366,-20.874,-6.897
0.266,0.950,-0.355,1.587,-19.470,-7.751
0.289,0.935,-0.358,2.808,-17.517,-7.935
0.314,0.916,-0.357,4.822,-15.442,-8.423
0.332,0.901,-0.350,8.240,-13.672,-8.850
0.343,0.885,-0.345,11.292,-11.230,-9.338
0.348,0.866,-0.345,13.184,-8.789,-9.399
0.356,0.853,-0.343,14.526,-6.653,-8.911
0.361,0.844,-0.341,15.259,-5.127,-8.423
0.360,0.829,-0.344,15.198,-3.296,-7.751
0.360,0.822,-0.344,15.076,-1.343,-6.592
0.361,0.830,-0.349,14.709,0.366,-5.432
0.357,0.841,-0.357,13.855,2.014,-4.883
0.355,0.853,-0.365,12.085,3.235,-4.822
0.352,0.862,-0.385,10.193,4.456,-5.737
0.357,0.861,-0.402,9.094,4.761,-7.629
0.364,0.856,-0.409,8.423,4.333,-9.766
0.368,0.853,-0.409,7.935,3.723,-11.780
0.370,0.854,-0.403,8.057,3.357,-13.245
0.374,0.853,-0.392,8.179,3.784,-14.771
0.380,0.847,-0.385,8.545,5.310,-16.479
0.383,0.848,-0.391,10.132,7.019,-18.311
0.393,0.848,-0.389,11.414,8.362,-20.752
0.410,0.841,-0.402,11.108,9.583,-23.010
0.428,0.831,-0.419,10.437,10.010,-25.513
0.443,0.810,-0.441,9.521,9.949,-28.137
0.456,0.792,-0.453,9.460,9.033,-30.945
0.471,0.778,-0.454,9.949,7.996,-32.776
0.486,0.764,-0.455,9.949,6.653,-33.875
0.498,0.748,-0.454,10.254,5.493,-34.607
0.505,0.736,-0.454,10.376,4.272,-34.424
0.511,0.725,-0.456,10.803,3.113,-33.936
0.516,0.714,-0.445,11.230,1.648,-32.654
0.515,0.715,-0.430,12.085,0.244,-30.701
0.512,0.727,-0.413,10.986,-1.099,-28.381
0.506,0.740,-0.403,9.155,-1.587,-25.391
0.498,0.749,-0.400,6.958,-1.770,-22.644
0.482,0.760,-0.400,5.859,-1.038,-20.081
0.468,0.788,-0.406,6.592,0.366,-17.578
0.446,0.833,-0.414,8.789,2.747,-16.418
0.426,0.873,-0.416,11.230,4.822,-17.700
0.405,0.904,-0.408,13.733,6.165,-20.752
0.386,0.929,-0.390,16.357,6.653,-24.841
0.373,0.946,-0.372,18.005,7.629,-29.114
0.365,0.958,-0.357,19.348,9.094,-33.142
0.358,0.971,-0.341,20.569,11.169,-36.987
0.349,0.985,-0.329,21.362,13.855,-39.917
0.357,1.015,-0.317,22.278,16.846,-42.786
0.364,1.040,-0.313,22.644,19.653,-46.753
0.369,1.053,-0.306,22.827,21.423,-51.453
0.369,1.064,-0.296,23.560,22.705,-56.519
0.364,1.069,-0.296,23.987,24.231,-62.622
0.364,1.061,-0.304,23.315,26.733,-70.007
0.368,1.049,-0.324,22.583,29.724,-78.735
0.379,1.017,-0.359,21.423,32.776,-89.294
0.402,0.967,-0.398,20.203,35.095,-100.464
0.432,0.911,-0.434,19.714,35.522,-111.267
0.464,0.845,-0.455,20.142,34.302,-119.873
0.499,0.788,-0.461,22.583,32.471,-125.427
0.529,0.738,-0.464,26.123,31.067,-127.930
0.557,0.691,-0.457,29.968,29.724,-127.563
0.583,0.663,-0.439,35.095,28.809,-124.512
0.600,0.644,-0.421,41.382,28.748,-119.812
0.610,0.641,-0.399,47.974,29.419,-114.136

0.411,0.185,-1.073,13.000,36.743,18.127
0.384,0.207,-1.015,13.184,35.767,26.062
0.385,0.282,-1.045,16.052,34.790,28.442
0.339,0.256,-1.060,15.381,36.499,25.085
0.349,0.195,-1.073,14.526,36.560,21.545
0.383,0.124,-1.100,15.869,35.034,20.996
0.393,0.050,-1.160,16.479,32.227,24.536
0.413,0.014,-1.211,15.503,26.489,33.203
0.400,0.001,-1.184,15.930,18.555,44.128
0.372,-0.017,-1.147,15.320,11.169,53.650
0.360,-0.051,-1.144,13.245,6.653,61.768
0.360,-0.076,-1.179,14.221,4.517,69.153
0.361,-0.090,-1.202,21.179,2.625,75.500
0.341,-0.140,-1.194,30.212,0.488,81.909
0.290,-0.240,-1.179,37.109,-0.366,90.454
0.275,-0.272,-1.194,42.297,-0.549,102.783
0.245,-0.273,-1.189,47.729,-1.831,116.333
0.272,-0.271,-1.026,52.063,-4.578,128.296
0.167,-0.248,-1.204,53.955,-7.996,137.878
0.151,-0.269,-1.224,51.758,-9.521,145.813
0.166,-0.255,-1.211,56.946,-14.343,151.428
0.164,-0.265,-1.200,62.256,-17.700,155.273
0.144,-0.298,-1.217,65.491,-19.470,159.668
0.134,-0.283,-1.227,69.519,-21.729,165.833
0.112,-0.236,-1.218,75.928,-25.452,172.852
0.067,-0.202,-1.202,81.726,-29.480,179.565
0.024,-0.153,-1.179,86.060,-33.936,186.035
-0.016,-0.085,-1.141,89.478,-37.964,192.322
-0.062,-0.007,-1.111,92.102,-42.053,197.083
-0.101,0.056,-1.086,93.201,-47.058,199.829
-0.143,0.114,-1.061,93.628,-53.101,201.477
-0.212,0.149,-1.037,94.238,-59.570,203.613
-0.251,0.265,-0.965,93.933,-67.749,205.078
-0.294,0.347,-0.942,84.778,-74.768,204.956
-0.329,0.411,-0.939,74.829,-81.360,203.247
-0.362,0.470,-0.932,67.200,-89.172,199.646
-0.387,0.506,-0.924,61.768,-97.778,194.336
-0.401,0.537,-0.894,58.350,-105.164,188.721
-0.411,0.555,-0.863,56.335,-111.023,182.678
-0.426,0.565,-0.820,54.749,-114.624,177.307
-0.442,0.588,-0.785,54.443,-116.516,172.363
-0.436,0.610,-0.785,52.246,-116.333,167.664
-0.429,0.619,-0.793,51.514,-114.868,163.635
-0.440,0.631,-0.797,53.711,-113.464,160.095
-0.451,0.653,-0.787,56.335,-112.671,156.982
-0.464,0.688,-0.787,58.533,-112.305,153.748
-0.473,0.718,-0.796,58.716,-113.525,149.414
-0.484,0.728,-0.795,57.922,-116.272,143.738
-0.493,0.732,-0.776,57.983,-120.483,137.390
-0.493,0.735,-0.740,57.617,-125.061,131.409
-0.488,0.739,-0.706,55.115,-128.784,126.587
-0.480,0.747,-0.688,51.758,-131.775,122.986
-0.486,0.739,-0.670,48.218,-134.399,120.361
-0.503,0.737,-0.654,45.410,-136.414,119.019
-0.517,0.741,-0.637,44.434,-137.146,118.652
-0.538,0.761,-0.622,45.776,-136.353,119.202
-0.555,0.795,-0.609,47.485,-133.911,119.934
-0.572,0.825,-0.589,49.683,-130.798,119.263
-0.585,0.852,-0.557,51.575,-128.174,115.845
-0.577,0.879,-0.516,52.429,-126.770,110.291
-0.576,0.891,-0.473,52.307,-125.671,103.821
-0.566,0.916,-0.433,51.880,-124.390,97.778
-0.544,0.933,-0.395,50.598,-122.375,92.163
-0.527,0.948,-0.351,48.645,-120.483,86.426
-0.508,0.960,-0.312,45.776,-118.652,81.238
-0.488,0.959,-0.271,41.504,-116.333,76.538
-0.476,0.949,-0.241,36.804,-113.586,72.205
-0.476,0.936,-0.201,32.166,-110.596,67.871
-0.478,0.936,-0.167,27.466,-107.849,64.514
-0.480,0.944,-0.148,20.508,-104.614,62.317
-0.481,0.957,-0.159,12.146,-100.159,61.829
-0.474,0.988,-0.186,3.723,-94.482,62.073
-0.480,1.000,-0.239,-3.418,-87.830,61.401
-0.491,0.999,-0.284,-7.568,-81.848,58.594
-0.500,1.007,-0.302,-7.385,-77.271,54.565
-0.498,1.028,-0.308,-6.042,-73.425,49.316
-0.493,1.020,-0.312,-5.310,-70.068,43.213
-0.490,0.998,-0.311,-4.700,-66.772,37.476
-0.479,0.990,-0.306,-3.418,-63.171,32.959
-0.460,0.987,-0.309,-1.953,-58.716,29.968
-0.445,0.984,-0.311,-0.671,-54.321,27.222
-0.433,0.981,-0.320,0.183,-50.171,24.597
-0.424,0.978,-0.338,0.488,-46.692,22.827
-0.423,0.992,-0.352,1.099,-44.128,21.362
-0.418,1.007,-0.366,0.793,-42.542,19.470
-0.410,1.020,-0.377,0.549,-41.931,16.846
-0.398,1.028,-0.385,1.038,-41.931,13.489
-0.383,1.029,-0.378,2.930,-41.443,9.888
-0.377,1.021,-0.351,5.981,-40.161,6.592
-0.376,1.018,-0.316,9.460,-37.476,3.662
-0.367,1.026,-0.278,12.085,-33.630,0.793
-0.354,1.031,-0.246,13.062,-29.602,-2.319
-0.341,1.031,-0.222,12.146,-25.574,-5.249
-0.320,1.026,-0.211,10.010,-21.484,-7.507
-0.301,1.024,-0.219,7.751,-17.090,-9.521
-0.284,1.022,-0.241,5.798,-12.634,-11.353
-0.274,1.015,-0.271,4.700,-8.423,-12.939
-0.277,1.008,-0.296,4.761,-4.639,-14.221
-0.278,1.012,-0.309,6.104,-1.587,-15.625
-0.272,1.020,-0.321,7.324,1.160,-17.151
-0.268,1.030,-0.338,8.240,3.723,-18.127
-0.265,1.046,-0.351,8.972,5.981,-19.592
-0.256,1.058,-0.371,8.972,8.057,-21.912
-0.243,1.053,-0.401,8.789,9.705,-25.696
-0.235,1.038,-0.424,8.911,10.315,-30.029
-0.229,1.026,-0.433,9.949,10.437,-33.752
-0.219,1.026,-0.432,11.169,10.315,-36.926
-0.203,1.022,-0.424,11.841,10.254,-39.734
-0.195,0.998,-0.415,12.756,10.437,-42.542
-0.187,0.981,-0.404,14.343,11.047,-44.678
-0.176,0.983,-0.402,15.015,12.451,-45.715
-0.157,0.988,-0.424,14.832,14.832,-46.570
-0.141,0.976,-0.453,14.099,17.212,-47.485
-0.131,0.974,-0.469,15.381,19.348,-48.279
-0.120,0.974,-0.468,17.883,21.057,-49.377
-0.127,0.959,-0.467,20.020,22.583,-50.964
-0.139,0.943,-0.458,21.790,22.827,-52.124
-0.157,0.948,-0.439,23.010,21.973,-52.185
-0.167,0.972,-0.406,23.010,20.630,-52.002
-0.157,0.987,-0.378,20.996,19.226,-53.101
-0.135,0.983,-0.374,17.090,18.127,-55.969
-0.114,0.960,-0.376,12.756,17.761,-60.181
-0.103,0.928,-0.375,9.277,18.188,-64.209
-0.081,0.916,-0.383,6.836,19.592,-67.383
-0.058,0.894,-0.393,5.676,21.790,-70.068
-0.042,0.859,-0.387,7.019,24.048,-72.021
-0.034,0.846,-0.364,10.498,26.550,-73.120
-0.023,0.840,-0.341,12.939,29.236,-73.547
-0.015,0.842,-0.324,12.146,31.616,-73.425
-0.001,0.859,-0.313,8.667,33.508,-72.937
0.023,0.880,-0.332,2.441,35.278,-73.364
0.060,0.886,-0.377,-4.333,36.438,-75.134
0.093,0.860,-0.433,-9.583,37.170,-78.613
0.118,0.817,-0.476,-10.071,38.147,-82.642
0.143,0.777,-0.493,-6.897,39.429,-85.571
0.167,0.730,-0.492,-0.244,41.382,-87.646
0.188,0.686,-0.469,7.080,43.884,-86.609
0.209,0.678,-0.434,14.160,46.875,-81.360
0.221,0.710,-0.390,18.494,49.133,-72.998
0.232,0.772,-0.360,17.273,50.476,-63.477
0.240,0.826,-0.382,10.132,50.659,-56.335
0.239,0.833,-0.438,0.183,49.683,-53.345
0.231,0.821,-0.487,-6.165,47.852,-53.650
0.235,0.806,-0.495,-6.104,45.166,-55.237
0.246,0.800,-0.464,-2.136,43.030,-56.763
0.249,0.803,-0.413,1.770,42.236,-57.129
0.245,0.816,-0.370,2.869,42.297,-56.274
0.247,0.832,-0.359,-0.488,43.213,-55.054
0.253,0.843,-0.387,-6.287,44.312,-54.382

0.177,0.453,-0.829,-13.184,15.564,13.855
0.196,0.434,-0.833,-17.700,17.090,10.864
0.243,0.454,-0.909,-15.747,15.808,6.775
0.203,0.390,-0.952,-13.611,16.052,1.831
0.224,0.290,-0.982,-10.925,14.954,-0.732
0.278,0.194,-1.017,-7.690,13.733,1.038
0.317,0.134,-1.063,-5.920,12.024,7.629
0.333,0.147,-1.057,-4.578,8.301,19.165
0.289,0.205,-1.025,-4.822,4.150,30.640
0.242,0.264,-1.026,-6.653,1.404,37.781
0.225,0.289,-1.020,-6.653,-0.061,39.063
0.214,0.281,-0.999,-3.052,-0.977,36.072
0.200,0.239,-0.993,1.953,-0.854,32.104
0.190,0.188,-0.998,5.859,-0.427,30.579
0.238,0.177,-0.842,8.179,-0.244,33.142
0.152,0.144,-1.075,5.310,0.427,38.757
0.137,0.131,-1.102,1.770,-0.916,46.753
0.142,0.172,-1.099,1.038,-6.042,54.443
0.139,0.221,-1.092,-1.587,-11.230,59.875
0.111,0.230,-1.088,-9.033,-15.564,62.866
0.084,0.249,-1.092,-15.259,-19.592,64.270
0.065,0.278,-1.094,-18.555,-24.170,63.538
0.042,0.298,-1.083,-22.217,-28.381,61.157
0.019,0.299,-1.076,-26.001,-31.311,57.434
0.008,0.262,-1.090,-29.907,-32.410,52.734
0.054,0.230,-1.118,-29.541,-33.691,48.584
0.093,0.177,-1.103,-28.015,-34.302,46.997
0.104,0.158,-1.087,-22.644,-31.128,48.462
0.104,0.189,-1.053,-13.855,-26.978,52.429
0.101,0.204,-1.037,-10.132,-23.071,56.580
0.099,0.219,-1.043,-10.254,-20.996,60.059
0.098,0.224,-1.053,-11.597,-21.484,62.317
0.102,0.218,-1.041,-12.695,-24.048,63.721
0.109,0.205,-1.018,-14.038,-27.405,65.247
0.115,0.189,-1.000,-15.869,-29.724,67.993
0.121,0.181,-0.999,-18.799,-30.457,72.327
0.125,0.183,-1.009,-20.752,-30.029,77.942
0.118,0.204,-1.019,-21.545,-29.663,84.290
0.093,0.241,-1.009,-21.118,-30.273,90.210
0.068,0.272,-0.999,-22.095,-31.555,94.116
0.048,0.287,-1.014,-26.245,-33.142,96.069
0.041,0.284,-1.050,-30.823,-35.706,96.558
0.033,0.276,-1.067,-33.142,-39.185,95.581
0.042,0.270,-1.087,-34.668,-42.786,94.238
0.070,0.245,-1.128,-37.659,-45.776,93.079
0.083,0.213,-1.163,-39.307,-49.011,93.201
0.075,0.196,-1.179,-38.879,-53.223,95.093
0.064,0.192,-1.193,-37.415,-57.434,98.328
0.057,0.199,-1.196,-35.950,-62.073,102.173
0.038,0.209,-1.193,-34.912,-66.833,106.018
0.013,0.218,-1.185,-33.203,-71.533,109.924
-0.005,0.229,-1.167,-32.593,-75.317,113.159
-0.012,0.244,-1.164,-32.227,-78.369,115.173
-0.009,0.243,-1.161,-32.471,-81.360,115.234
-0.007,0.233,-1.155,-31.372,-84.167,114.380
-0.012,0.220,-1.133,-27.588,-86.426,113.220
-0.011,0.195,-1.106,-23.499,-87.891,112.732
-0.017,0.174,-1.069,-19.104,-88.318,113.525
-0.025,0.179,-1.034,-14.709,-88.501,116.211
-0.040,0.193,-1.020,-12.146,-88.013,119.812
-0.048,0.205,-1.019,-11.658,-87.402,124.084
-0.051,0.218,-1.036,-11.414,-87.463,127.991
-0.055,0.238,-1.050,-10.376,-88.196,130.981
-0.053,0.254,-1.070,-9.583,-89.966,133.301
-0.040,0.255,-1.072,-8.789,-92.163,134.766
-0.038,0.245,-1.052,-6.592,-95.154,134.827
-0.049,0.238,-1.010,-3.784,-98.328,135.254
-0.065,0.252,-0.968,-0.854,-100.830,136.780
-0.078,0.276,-0.922,0.427,-102.234,139.343
-0.083,0.311,-0.903,0.183,-102.173,142.761
-0.084,0.350,-0.914,-0.183,-101.379,145.386
-0.090,0.376,-0.914,1.465,-101.135,147.156
-0.092,0.407,-0.869,6.226,-101.074,148.376
-0.096,0.453,-0.816,12.268,-99.915,149.048
-0.095,0.486,-0.772,15.991,-97.534,147.827
-0.089,0.509,-0.756,17.822,-95.459,145.020
-0.092,0.521,-0.753,20.630,-94.727,141.052
-0.100,0.525,-0.730,24.292,-95.337,137.878
-0.100,0.530,-0.692,28.564,-95.703,136.658
-0.114,0.520,-0.638,32.227,-95.276,136.658
-0.146,0.523,-0.564,33.936,-93.384,138.367
-0.157,0.567,-0.529,31.616,-89.539,142.517
-0.142,0.607,-0.546,24.231,-84.717,146.912
-0.130,0.645,-0.573,16.663,-82.214,150.146
-0.133,0.672,-0.595,11.536,-82.397,151.978
-0.137,0.681,-0.599,8.606,-84.778,151.917
-0.145,0.678,-0.605,8.362,-87.769,150.696
-0.154,0.668,-0.606,11.719,-89.600,149.902
-0.169,0.671,-0.584,18.921,-89.478,150.208
-0.192,0.685,-0.536,28.076,-86.853,151.550
-0.222,0.694,-0.456,34.546,-81.604,152.649
-0.276,0.716,-0.375,36.743,-74.402,152.771
-0.321,0.774,-0.361,32.532,-65.918,153.015
-0.335,0.845,-0.405,24.719,-58.167,154.663
-0.329,0.909,-0.470,18.005,-53.223,156.372
-0.333,0.948,-0.511,15.320,-51.636,156.128
-0.350,0.983,-0.521,16.968,-52.246,153.198
-0.368,1.014,-0.511,20.996,-52.673,148.010
-0.381,1.046,-0.493,25.330,-52.124,140.991
-0.385,1.083,-0.459,29.053,-49.744,132.812
-0.390,1.132,-0.404,32.104,-45.654,124.634
-0.397,1.183,-0.343,32.166,-39.978,114.563
-0.400,1.246,-0.313,26.978,-33.508,101.746
-0.377,1.296,-0.332,18.311,-27.161,87.097
-0.345,1.306,-0.384,9.827,-21.484,71.655
-0.318,1.295,-0.431,5.066,-16.907,56.030
-0.292,1.274,-0.458,5.371,-13.184,41.016
-0.258,1.249,-0.458,8.484,-9.216,27.039
-0.221,1.231,-0.449,13.428,-4.883,14.038
-0.181,1.207,-0.441,16.785,0.549,2.747
-0.150,1.173,-0.444,18.494,6.714,-6.531
-0.121,1.141,-0.469,17.639,12.329,-14.832
-0.088,1.107,-0.501,15.686,16.479,-22.278
-0.064,1.073,-0.516,14.038,18.433,-28.076
-0.043,1.050,-0.523,11.719,18.799,-32.898
-0.026,1.028,-0.547,7.935,18.799,-36.499
-0.014,0.999,-0.579,3.845,17.944,-39.185
-0.001,0.974,-0.602,1.587,15.930,-41.016
0.016,0.940,-0.614,1.099,13.672,-41.992
0.034,0.905,-0.613,2.502,12.268,-42.358
0.041,0.885,-0.600,5.005,12.024,-41.382
0.040,0.877,-0.586,8.240,12.939,-39.551
0.043,0.879,-0.575,10.437,14.221,-38.574
0.042,0.878,-0.565,11.353,15.503,-38.147
0.037,0.875,-0.560,10.986,17.090,-37.964
0.035,0.880,-0.572,9.521,18.555,-38.391
0.034,0.885,-0.599,7.629,19.714,-38.757
0.035,0.886,-0.624,6.775,19.958,-39.795
0.035,0.887,-0.632,7.324,19.348,-42.236
0.028,0.879,-0.632,8.606,17.883,-45.959
0.023,0.867,-0.618,9.644,16.235,-50.049
0.033,0.852,-0.615,8.545,15.259,-52.917
0.040,0.833,-0.624,7.324,14.587,-54.810
0.047,0.810,-0.638,7.080,13.977,-56.213
0.059,0.795,-0.650,7.202,13.611,-56.274
0.072,0.788,-0.654,9.033,13.550,-55.115
0.078,0.788,-0.652,11.536,13.672,-53.894
0.079,0.786,-0.640,13.611,13.916,-52.551
0.082,0.794,-0.627,15.625,14.282,-50.781
0.094,0.807,-0.621,16.296,14.954,-49.561
0.112,0.813,-0.622,15.564,15.625,-49.927
0.129,0.807,-0.623,15.015,15.869,-51.941
0.139,0.795,-0.619,14.221,15.625,-54.810
0.146,0.775,-0.624,12.207,14.954,-57.861
0.151,0.740,-0.639,9.766,14.404,-59.753
0.156,0.710,-0.661,7.568,13.733,-59.387
0.166,0.701,-0.674,7.507,12.695,-56.580
0.171,0.703,-0.678,8.057,11.169,-52.856
0.161,0.703,-0.677,8.911,9.338,-49.133

0.540,-1.458,-0.566,8.606,10.559,-65.063
0.622,-1.478,-0.412,-13.245,6.226,-44.617
0.554,-1.475,-0.447,-24.719,4.822,-23.499
0.472,-1.455,-0.486,-33.936,6.775,-8.362
0.465,-1.400,-0.509,-32.715,8.301,0.732
0.456,-1.414,-0.503,-26.672,8.423,4.272
0.470,-1.482,-0.474,-19.348,8.057,6.897
0.486,-1.573,-0.478,-12.634,8.240,14.343
0.484,-1.636,-0.478,-5.615,9.277,27.893
0.485,-1.682,-0.457,3.479,11.963,45.837
0.503,-1.676,-0.454,14.038,16.846,66.772
0.519,-1.658,-0.456,21.851,21.851,88.867
0.496,-1.632,-0.429,28.809,24.536,110.657
0.409,-1.589,-0.366,35.706,24.902,131.775
0.308,-1.552,-0.325,41.626,24.475,151.306
0.195,-1.554,-0.272,46.021,22.644,168.152
0.113,-1.550,-0.284,47.668,21.790,185.059
0.132,-1.581,-0.265,42.725,20.386,203.125
0.214,-1.605,-0.289,34.851,17.090,223.877
0.239,-1.603,-0.354,29.053,15.930,246.582
0.212,-1.551,-0.403,23.193,15.198,271.179
0.172,-1.464,-0.442,19.714,15.381,295.715
0.135,-1.360,-0.480,21.362,16.479,317.993
0.105,-1.239,-0.488,28.320,18.616,336.792
0.069,-1.117,-0.474,42.236,22.339,351.746
0.034,-0.982,-0.436,60.059,27.222,363.159
0.013,-0.844,-0.407,75.623,33.569,371.094
0.000,-0.729,-0.406,85.205,40.466,376.038
-0.006,-0.641,-0.448,87.769,45.898,379.272
0.012,-0.552,-0.495,85.388,47.729,380.676
0.026,-0.448,-0.521,82.703,45.288,380.066
0.021,-0.328,-0.564,79.346,39.307,377.014
0.031,-0.220,-0.611,72.754,30.151,371.094
0.060,-0.117,-0.632,64.331,18.860,362.549
0.080,-0.020,-0.633,56.458,7.263,351.257
0.079,0.078,-0.632,48.462,-2.808,339.111
0.073,0.169,-0.665,35.889,-10.193,326.782
0.080,0.232,-0.706,20.386,-17.517,314.270
0.082,0.263,-0.749,5.310,-24.902,301.697
0.075,0.294,-0.778,-6.531,-32.837,290.344
0.069,0.331,-0.800,-16.113,-41.138,281.555
0.067,0.351,-0.833,-23.010,-48.645,275.574
0.059,0.377,-0.840,-27.893,-55.481,273.682
0.037,0.425,-0.828,-29.968,-60.303,276.001
0.010,0.469,-0.815,-31.372,-62.378,281.006
-0.019,0.513,-0.806,-32.043,-61.462,286.804
-0.050,0.555,-0.793,-28.137,-58.594,291.565
-0.085,0.588,-0.759,-18.127,-54.932,294.006
-0.120,0.635,-0.716,-4.395,-49.927,294.189
-0.145,0.668,-0.664,9.583,-43.518,292.786
-0.165,0.696,-0.627,23.865,-36.987,290.344
-0.172,0.696,-0.607,36.499,-31.921,287.354
-0.180,0.705,-0.562,48.401,-29.297,285.889
-0.203,0.764,-0.488,61.646,-29.541,286.194
-0.249,0.833,-0.408,71.106,-31.189,286.621
-0.302,0.872,-0.357,72.632,-32.471,286.499
-0.369,0.895,-0.340,68.054,-32.959,285.828
-0.432,0.901,-0.345,61.768,-33.813,284.851
-0.502,0.912,-0.347,55.847,-35.889,284.546
-0.598,0.962,-0.356,51.392,-39.795,285.461
-0.698,1.037,-0.347,46.082,-46.631,285.095
-0.807,1.141,-0.327,38.330,-56.091,281.677
-0.917,1.260,-0.284,27.832,-67.200,273.254
-1.008,1.388,-0.229,14.465,-77.820,258.606
-1.058,1.520,-0.205,0.000,-85.144,238.647
-1.118,1.591,-0.195,-12.451,-88.074,210.327
-1.139,1.636,-0.195,-19.958,-86.548,178.040
-1.112,1.671,-0.192,-20.264,-80.811,143.799
-1.089,1.658,-0.194,-15.503,-70.923,108.154
-1.043,1.600,-0.207,-7.385,-58.533,73.975
-0.965,1.517,-0.206,4.089,-46.570,43.823
-0.887,1.448,-0.189,16.357,-37.048,19.348
-0.800,1.396,-0.138,25.635,-30.396,1.038
-0.698,1.361,-0.100,29.053,-23.499,-11.963
-0.601,1.327,-0.089,28.259,-17.090,-23.560
-0.502,1.299,-0.083,24.109,-10.986,-33.386
-0.402,1.241,-0.089,19.653,-5.127,-41.565
-0.345,1.162,-0.116,15.808,2.136,-46.631
-0.290,1.094,-0.161,15.137,10.010,-47.119
-0.249,1.038,-0.211,17.212,16.907,-45.837
-0.221,0.986,-0.239,21.667,22.766,-44.434
-0.188,0.952,-0.254,25.818,27.527,-40.405
-0.170,0.927,-0.276,27.527,31.006,-35.156
-0.166,0.916,-0.290,27.466,32.715,-29.663
-0.164,0.928,-0.289,26.794,32.288,-24.597
-0.159,0.945,-0.280,25.635,31.006,-21.362
-0.155,0.950,-0.271,23.132,30.090,-20.935
-0.157,0.942,-0.272,20.752,29.907,-22.461
-0.151,0.918,-0.297,17.090,30.029,-25.024
-0.133,0.891,-0.318,13.977,29.297,-27.588
-0.115,0.873,-0.331,12.329,27.283,-29.419
-0.096,0.865,-0.331,10.986,24.475,-30.151
-0.079,0.865,-0.319,8.789,21.973,-30.029
-0.068,0.868,-0.309,6.592,20.325,-30.029
-0.060,0.863,-0.312,4.333,19.592,-30.396
-0.046,0.849,-0.323,1.892,19.104,-31.006
-0.028,0.828,-0.337,0.671,18.555,-31.372
-0.006,0.812,-0.348,-0.549,18.188,-30.640
0.009,0.809,-0.361,-2.014,17.700,-28.137
0.023,0.811,-0.385,-2.563,17.029,-24.414
0.031,0.811,-0.409,-2.502,15.564,-20.203
0.038,0.817,-0.409,0.305,13.062,-16.296
0.035,0.836,-0.380,5.188,10.193,-12.512
0.036,0.873,-0.345,8.423,8.240,-9.155
0.022,0.904,-0.318,8.423,7.446,-7.629
0.010,0.916,-0.306,6.409,7.202,-8.484
0.010,0.912,-0.301,3.174,6.409,-9.644
0.013,0.906,-0.305,-0.305,5.371,-10.254
0.014,0.901,-0.311,-3.174,4.456,-9.766
0.006,0.897,-0.322,-4.944,3.479,-8.606
-0.004,0.897,-0.333,-5.188,2.014,-7.080
-0.012,0.899,-0.325,-3.723,-0.366,-6.042
-0.019,0.905,-0.303,-1.221,-2.380,-5.066
-0.021,0.918,-0.279,0.488,-3.357,-4.028
-0.019,0.927,-0.261,0.793,-3.540,-3.479
-0.021,0.936,-0.258,-0.305,-2.563,-2.991
-0.024,0.937,-0.265,-1.465,-0.793,-2.502
-0.033,0.938,-0.274,-2.380,0.732,-2.014
-0.043,0.942,-0.282,-2.686,2.197,-1.587
-0.054,0.947,-0.290,-2.930,2.869,-1.404
-0.059,0.950,-0.297,-3.235,2.808,-1.648
-0.059,0.955,-0.307,-4.089,2.075,-1.892
-0.053,0.960,-0.308,-4.272,0.427,-1.953
-0.046,0.965,-0.301,-3.784,-1.282,-2.808
-0.042,0.964,-0.289,-3.357,-2.319,-3.662
-0.039,0.961,-0.282,-3.418,-2.197,-4.333
-0.037,0.959,-0.279,-4.089,-1.404,-4.517
-0.036,0.957,-0.282,-3.967,0.122,-4.517
-0.039,0.955,-0.290,-3.479,1.526,-4.639
-0.039,0.944,-0.305,-2.869,2.380,-4.944
-0.034,0.940,-0.308,-2.197,2.380,-5.066
-0.030,0.945,-0.302,-1.526,1.526,-5.249
-0.026,0.942,-0.297,-1.709,0.488,-5.249
-0.026,0.934,-0.301,-2.686,-0.122,-4.822
-0.028,0.927,-0.308,-2.991,-0.610,-4.517
-0.030,0.927,-0.301,-2.747,-0.671,-3.845
-0.032,0.938,-0.290,-1.709,-0.366,-3.479
-0.032,0.938,-0.288,-1.099,0.549,-3.601
-0.028,0.936,-0.289,-1.160,1.892,-4.150
-0.025,0.938,-0.289,-1.221,2.930,-4.333
-0.020,0.940,-0.293,-1.770,3.174,-4.578
-0.017,0.937,-0.298,-2.747,3.052,-4.700
-0.019,0.936,-0.300,-3.296,2.991,-4.761
-0.020,0.939,-0.297,-3.479,2.563,-4.700
-0.015,0.937,-0.305,-3.723,2.563,-4.578
-0.011,0.932,-0.323,-3.906,2.563,-4.700
-0.006,0.921,-0.334,-3.235,2.319,-4.578
-0.007,0.915,-0.333,-1.343,1.526,-3.479
-0.006,0.926,-0.328,-0.122,0.977,-2.258

0.596,-0.952,-0.911,14.221,52.612,-10.742
0.556,-1.002,-0.888,12.573,47.852,5.066
0.599,-0.982,-0.929,12.939,34.485,23.804
0.548,-1.037,-0.949,13.000,24.658,34.607
0.480,-1.103,-0.926,17.395,18.921,37.415
0.488,-1.130,-0.905,27.344,15.259,38.879
0.490,-1.188,-0.877,32.227,12.329,42.664
0.479,-1.263,-0.835,30.029,9.460,49.500
0.465,-1.318,-0.826,23.804,6.897,59.448
0.454,-1.369,-0.889,16.968,4.089,72.083
0.465,-1.420,-0.941,13.733,-0.732,86.548
0.473,-1.438,-0.940,17.273,-7.202,103.394
0.478,-1.440,-0.902,24.414,-12.756,121.460
0.454,-1.449,-0.868,30.945,-15.320,139.038
0.418,-1.461,-0.833,36.743,-17.151,156.860
0.331,-1.447,-0.778,41.931,-21.118,175.354
0.264,-1.403,-0.730,45.776,-26.367,194.458
0.243,-1.353,-0.675,45.715,-31.128,212.769
0.212,-1.345,-0.727,41.565,-33.691,228.882
0.188,-1.314,-0.711,39.001,-33.203,240.906
0.214,-1.297,-0.703,34.790,-36.865,250.000
0.251,-1.234,-0.687,29.419,-42.603,259.949
0.238,-1.159,-0.692,20.813,-45.593,271.301
0.199,-1.058,-0.718,11.353,-46.387,283.630
0.156,-0.951,-0.750,6.226,-47.546,294.434
0.133,-0.843,-0.766,6.287,-49.744,301.575
0.131,-0.765,-0.772,9.216,-52.917,304.443
0.126,-0.760,-0.792,11.353,-55.908,304.565
0.193,-0.635,-0.759,15.015,-59.631,304.443
0.176,-0.578,-0.745,14.221,-61.218,303.711
0.156,-0.502,-0.751,12.817,-59.692,302.124
0.148,-0.408,-0.762,11.047,-56.702,299.988
0.127,-0.309,-0.771,8.057,-52.612,296.936
0.093,-0.220,-0.783,4.761,-48.340,292.175
0.063,-0.131,-0.790,2.014,-45.166,287.781
0.035,-0.038,-0.783,1.038,-43.884,283.569
0.021,0.055,-0.774,0.916,-44.067,279.358
0.013,0.140,-0.763,-0.366,-44.983,275.391
0.015,0.219,-0.764,-3.662,-46.509,272.827
0.021,0.278,-0.773,-8.911,-49.744,269.714
0.018,0.310,-0.788,-16.357,-54.382,267.090
0.007,0.360,-0.793,-23.560,-59.692,265.930
-0.007,0.418,-0.797,-29.236,-65.308,266.052
-0.028,0.461,-0.800,-34.668,-70.435,267.639
-0.058,0.493,-0.815,-39.490,-73.608,270.386
-0.101,0.504,-0.835,-42.114,-74.585,273.926
-0.144,0.520,-0.844,-40.283,-73.792,278.198
-0.193,0.551,-0.837,-32.410,-71.167,282.654
-0.244,0.600,-0.799,-19.287,-67.749,286.804
-0.295,0.675,-0.749,-4.150,-63.904,289.185
-0.340,0.763,-0.705,9.766,-59.753,290.039
-0.380,0.853,-0.663,21.118,-56.274,287.720
-0.427,0.928,-0.631,29.480,-54.260,282.654
-0.466,0.989,-0.613,33.386,-53.650,275.085
-0.495,1.031,-0.595,35.461,-55.115,265.869
-0.521,1.063,-0.574,36.133,-58.777,256.287
-0.542,1.097,-0.536,38.269,-64.941,245.972
-0.571,1.148,-0.475,40.222,-73.120,236.633
-0.613,1.235,-0.407,41.199,-81.787,227.783
-0.662,1.322,-0.337,38.757,-90.698,218.750
-0.698,1.396,-0.270,34.851,-99.121,208.313
-0.731,1.457,-0.186,32.043,-106.995,195.068
-0.746,1.533,-0.094,29.663,-112.427,179.382
-0.745,1.596,0.006,26.611,-113.525,160.278
-0.713,1.644,0.090,22.400,-109.375,139.404
-0.667,1.672,0.152,18.127,-100.037,116.760
-0.609,1.686,0.192,13.794,-86.182,93.140
-0.547,1.669,0.197,10.986,-69.153,69.458
-0.486,1.619,0.174,10.071,-50.537,46.692
-0.418,1.553,0.136,12.451,-31.982,26.917
-0.342,1.487,0.090,17.090,-14.465,10.376
-0.267,1.416,0.035,22.400,1.282,-2.441
-0.229,1.316,-0.057,27.344,15.259,-11.902
-0.152,1.284,-0.081,33.691,24.170,-18.677
-0.100,1.228,-0.124,35.889,30.334,-23.315
-0.060,1.168,-0.169,36.926,34.851,-26.611
-0.030,1.120,-0.209,36.255,36.682,-28.076
-0.008,1.089,-0.239,34.180,36.072,-27.832
0.005,1.064,-0.254,30.701,32.593,-26.733
0.022,1.040,-0.253,26.611,27.405,-24.963
0.034,1.035,-0.248,22.156,21.729,-22.400
0.028,1.028,-0.250,18.005,16.968,-21.179
0.028,1.020,-0.249,14.465,13.000,-21.301
0.035,1.017,-0.241,12.146,10.071,-22.705
0.045,1.010,-0.240,10.498,8.545,-25.635
0.052,0.990,-0.245,7.935,8.118,-28.992
0.063,0.965,-0.248,6.836,8.301,-31.860
0.074,0.943,-0.246,6.958,8.850,-34.180
0.085,0.924,-0.250,6.958,9.766,-35.828
0.095,0.892,-0.274,6.042,10.681,-36.682
0.116,0.863,-0.301,4.822,10.742,-36.255
0.145,0.850,-0.303,4.822,9.644,-34.241
0.164,0.856,-0.289,5.371,8.179,-31.372
0.171,0.861,-0.281,3.967,7.385,-29.297
0.176,0.862,-0.282,0.488,7.324,-27.527
0.187,0.863,-0.288,-2.441,7.812,-26.611
0.198,0.862,-0.288,-4.089,8.179,-26.794
0.205,0.860,-0.283,-4.944,8.789,-27.710
0.210,0.854,-0.282,-5.615,9.521,-28.625
0.214,0.850,-0.294,-6.836,10.132,-29.480
0.220,0.838,-0.318,-7.751,10.559,-29.846
0.232,0.823,-0.337,-7.812,9.827,-29.419
0.251,0.811,-0.336,-5.432,8.179,-28.259
0.266,0.801,-0.331,-2.869,6.775,-25.940
0.272,0.795,-0.325,-1.648,5.554,-22.034
0.275,0.792,-0.324,-1.831,5.188,-16.663
0.280,0.809,-0.321,-2.014,5.493,-10.193
0.266,0.830,-0.321,-1.770,5.859,-5.127
0.253,0.853,-0.313,-1.099,6.042,-1.404
0.240,0.880,-0.302,0.244,6.226,1.221
0.225,0.898,-0.288,1.160,6.653,2.197
0.220,0.916,-0.280,1.587,6.958,2.014
0.217,0.931,-0.278,0.977,7.141,1.038
0.210,0.939,-0.277,-0.061,6.714,-0.854
0.208,0.936,-0.276,-1.892,6.042,-2.686
0.204,0.933,-0.274,-3.601,5.188,-4.089
0.204,0.920,-0.282,-5.310,4.211,-5.249
0.209,0.898,-0.295,-6.409,2.930,-5.981
0.215,0.882,-0.293,-6.531,1.160,-5.798
0.215,0.883,-0.278,-6.042,-0.427,-4.639
0.213,0.897,-0.266,-6.531,-0.610,-2.686
0.213,0.907,-0.265,-6.836,0.366,-0.916
0.208,0.914,-0.280,-7.507,1.648,-0.488
0.205,0.921,-0.294,-7.385,2.808,-0.549
0.204,0.927,-0.296,-6.226,3.357,-1.099
0.202,0.932,-0.292,-4.944,3.845,-2.197
0.200,0.933,-0.287,-4.761,4.517,-3.174
0.198,0.928,-0.285,-5.188,5.066,-4.211
0.196,0.928,-0.295,-6.592,5.798,-4.883
0.200,0.930,-0.312,-8.240,6.287,-5.005
0.205,0.927,-0.328,-8.728,6.287,-5.310
0.210,0.918,-0.340,-8.118,5.981,-5.859
0.216,0.912,-0.347,-6.653,5.432,-5.920
0.224,0.907,-0.338,-4.456,4.883,-5.920
0.227,0.904,-0.322,-2.502,4.456,-5.981
0.227,0.902,-0.312,-2.075,4.578,-6.165
0.228,0.897,-0.307,-2.625,4.456,-6.409
0.231,0.895,-0.306,-3.784,4.395,-6.470
0.239,0.893,-0.312,-4.883,4.395,-6.470
0.246,0.887,-0.326,-6.348,4.456,-6.348
0.250,0.879,-0.339,-7.324,4.944,-6.104
0.250,0.871,-0.352,-6.836,5.188,-5.554
0.248,0.868,-0.363,-5.798,5.005,-4.883
0.247,0.869,-0.366,-4.395,4.517,-3.601
0.242,0.875,-0.364,-2.380,3.540,-2.014
0.235,0.881,-0.359,-1.404,2.136,-0.366
0.238,0.888,-0.348,-0.549,0.732,0.916
0.229,0.899,-0.331,0.671,-0.366,1.831
0.217,0.908,-0.318,0.732,-0.427,1.160

0.775,-1.232,-0.979,27.832,66.040,-44.617
0.817,-1.222,-0.814,29.785,54.749,-5.737
0.759,-1.152,-0.743,32.898,47.791,25.269
0.604,-1.114,-0.668,35.156,49.622,39.795
0.597,-1.114,-0.686,36.377,53.650,44.434
0.652,-1.213,-0.716,30.151,52.063,45.898
0.677,-1.354,-0.688,21.484,44.373,48.706
0.695,-1.469,-0.645,10.498,34.607,56.885
0.676,-1.535,-0.651,-2.014,27.161,72.754
0.641,-1.550,-0.679,-13.489,22.522,93.628
0.614,-1.505,-0.722,-18.860,20.081,114.563
0.614,-1.459,-0.720,-17.883,19.043,131.897
0.597,-1.460,-0.677,-12.817,19.104,146.362
0.525,-1.466,-0.642,-7.690,20.203,161.133
0.448,-1.446,-0.594,-2.380,20.874,177.917
0.346,-1.394,-0.559,3.113,20.996,195.129
0.269,-1.355,-0.548,7.385,19.714,210.022
0.250,-1.299,-0.584,10.620,17.700,223.511
0.235,-1.281,-0.569,4.456,14.221,236.084
0.240,-1.212,-0.566,-4.395,10.315,248.962
0.208,-1.146,-0.620,-10.376,9.033,261.536
0.179,-1.104,-0.692,-15.991,9.094,273.071
0.180,-1.027,-0.729,-18.494,9.399,283.875
0.158,-0.910,-0.756,-14.893,11.108,293.762
0.118,-0.779,-0.768,-9.583,14.954,301.514
0.089,-0.635,-0.763,-2.197,20.508,307.617
0.067,-0.508,-0.759,6.958,27.283,310.425
0.049,-0.398,-0.769,15.503,33.691,310.974
0.048,-0.301,-0.801,21.118,38.818,310.608
0.048,-0.214,-0.846,21.423,41.321,311.157
0.033,-0.110,-0.888,16.357,39.917,312.683
0.001,0.008,-0.938,7.568,34.363,314.270
-0.027,0.100,-0.991,-3.235,25.513,315.247
-0.060,0.188,-1.022,-13.489,13.977,315.857
-0.102,0.270,-1.040,-21.362,1.831,316.589
-0.148,0.352,-1.042,-27.222,-8.240,318.237
-0.190,0.440,-1.044,-32.166,-15.747,320.007
-0.219,0.516,-1.051,-36.072,-20.691,320.496
-0.245,0.575,-1.050,-37.415,-23.987,318.481
-0.274,0.633,-1.040,-35.034,-26.245,313.477
-0.298,0.704,-1.018,-27.954,-28.625,306.091
-0.312,0.773,-0.994,-20.996,-31.433,296.082
-0.311,0.829,-0.983,-16.968,-34.607,284.607
-0.313,0.850,-0.976,-12.878,-38.330,272.095
-0.314,0.864,-0.951,-6.714,-42.603,259.521
-0.317,0.886,-0.920,0.732,-46.204,248.596
-0.322,0.907,-0.881,9.216,-47.668,240.723
-0.330,0.932,-0.837,18.433,-47.363,233.032
-0.335,0.966,-0.790,28.137,-46.082,225.403
-0.340,0.994,-0.751,35.950,-44.922,217.285
-0.358,1.017,-0.718,42.664,-43.701,208.435
-0.375,1.024,-0.685,48.157,-43.030,199.402
-0.383,1.052,-0.646,52.612,-42.542,192.139
-0.391,1.111,-0.603,56.213,-41.931,186.218
-0.409,1.165,-0.559,57.556,-41.443,179.993
-0.437,1.214,-0.519,57.190,-42.053,172.729
-0.463,1.252,-0.483,55.481,-43.884,163.696
-0.482,1.297,-0.446,52.795,-45.837,153.503
-0.490,1.353,-0.418,49.561,-47.607,141.541
-0.481,1.384,-0.396,45.227,-48.218,127.686
-0.476,1.390,-0.381,41.443,-47.302,112.061
-0.463,1.385,-0.359,39.490,-45.593,94.238
-0.431,1.371,-0.335,37.537,-42.969,76.050
-0.397,1.346,-0.324,36.194,-38.879,57.983
-0.359,1.314,-0.314,34.790,-34.790,40.710
-0.325,1.276,-0.299,33.875,-31.189,24.902
-0.279,1.240,-0.283,31.860,-27.405,11.658
-0.236,1.198,-0.275,28.625,-23.315,1.160
-0.193,1.155,-0.277,24.780,-19.043,-6.348
-0.149,1.115,-0.293,21.973,-14.832,-11.047
-0.113,1.074,-0.321,19.958,-11.353,-13.855
-0.079,1.037,-0.343,19.165,-8.850,-14.648
-0.051,1.016,-0.353,20.325,-7.263,-14.160
-0.031,1.004,-0.351,22.400,-6.226,-12.939
-0.019,1.000,-0.344,23.865,-4.883,-11.780
-0.012,0.997,-0.337,24.292,-3.479,-11.230
-0.009,0.996,-0.333,22.949,-2.136,-11.414
-0.002,0.994,-0.332,20.935,-1.099,-12.085
0.001,0.992,-0.327,19.104,-0.183,-13.611
0.002,0.989,-0.318,17.212,0.610,-15.137
0.007,0.990,-0.314,14.832,1.404,-16.846
0.016,0.981,-0.327,11.841,2.014,-18.921
0.028,0.958,-0.348,9.460,2.380,-20.935
0.041,0.937,-0.359,9.277,2.441,-22.278
0.051,0.919,-0.359,10.681,2.808,-22.644
0.055,0.905,-0.356,12.085,3.906,-22.522
0.060,0.891,-0.358,12.695,5.615,-21.606
0.076,0.884,-0.366,12.207,7.629,-20.203
0.081,0.881,-0.374,12.146,9.338,-18.982
0.085,0.884,-0.374,11.963,10.803,-18.311
0.093,0.890,-0.368,11.169,11.780,-18.311
0.103,0.897,-0.372,8.911,12.817,-18.982
0.111,0.897,-0.382,6.226,13.672,-20.447
0.120,0.890,-0.393,3.967,14.343,-22.522
0.129,0.877,-0.408,2.380,14.526,-24.231
0.137,0.865,-0.431,0.366,14.404,-25.146
0.149,0.857,-0.455,-0.854,14.099,-25.696
0.159,0.847,-0.473,-0.122,13.062,-25.696
0.166,0.839,-0.474,0.977,11.169,-25.513
0.173,0.836,-0.467,1.709,9.155,-25.085
0.182,0.835,-0.459,1.160,7.385,-24.475
0.188,0.837,-0.452,-0.549,5.615,-24.170
0.193,0.833,-0.448,-2.747,4.395,-23.865
0.197,0.831,-0.450,-4.578,3.723,-23.376
0.200,0.833,-0.450,-6.042,3.479,-22.827
0.202,0.834,-0.451,-6.409,3.662,-22.888
0.208,0.838,-0.443,-6.592,3.845,-23.437
0.213,0.834,-0.436,-6.714,4.089,-24.414
0.216,0.832,-0.438,-7.996,4.944,-24.902
0.221,0.828,-0.452,-9.827,5.798,-24.963
0.234,0.810,-0.482,-11.475,6.165,-25.208
0.247,0.783,-0.515,-12.268,5.554,-24.536
0.261,0.767,-0.525,-10.254,3.784,-22.217
0.268,0.758,-0.505,-6.104,1.343,-18.921
0.268,0.769,-0.472,-2.625,-0.244,-14.832
0.255,0.784,-0.448,-1.526,-0.488,-11.230
0.252,0.804,-0.434,-2.686,0.183,-8.728
0.254,0.818,-0.437,-4.578,1.282,-7.385
0.252,0.825,-0.450,-6.531,2.075,-7.019
0.249,0.821,-0.461,-7.935,2.686,-7.141
0.248,0.820,-0.469,-7.935,2.930,-6.775
0.247,0.817,-0.476,-7.446,2.991,-6.775
0.246,0.816,-0.476,-6.653,2.869,-6.470
0.246,0.818,-0.478,-5.798,2.441,-5.859
0.244,0.817,-0.478,-5.493,1.953,-5.310
0.244,0.820,-0.476,-5.249,1.465,-4.395
0.242,0.824,-0.477,-4.944,1.038,-3.174
0.234,0.828,-0.480,-5.066,0.610,-2.197
0.230,0.836,-0.482,-5.310,0.488,-1.282
0.228,0.844,-0.485,-5.127,0.488,-1.221
0.225,0.851,-0.487,-4.944,0.610,-1.526
0.225,0.855,-0.486,-4.456,0.793,-1.892
0.222,0.854,-0.480,-3.113,0.977,-2.686
0.219,0.851,-0.469,-2.075,1.221,-4.089
0.222,0.847,-0.463,-2.136,1.587,-5.005
0.224,0.844,-0.462,-2.686,1.953,-5.310
0.225,0.834,-0.469,-3.601,2.502,-5.554
0.229,0.831,-0.472,-4.028,2.686,-5.310
0.231,0.830,-0.468,-3.601,2.563,-4.883
0.228,0.832,-0.468,-3.540,2.747,-4.578
0.224,0.835,-0.473,-3.723,3.113,-4.333
0.223,0.834,-0.481,-3.357,3.174,-4.272
0.228,0.833,-0.475,-2.747,2.625,-4.395
0.232,0.837,-0.469,-1.770,1.953,-4.333
0.235,0.834,-0.466,-1.831,1.404,-4.211
0.237,0.832,-0.468,-2.869,1.587,-4.089
0.239,0.832,-0.468,-3.052,1.404,-4.150
0.241,0.829,-0.469,-3.052,1.282,-4.333
0.244,0.829,-0.471,-3.479,1.465,-4.333

0.475,0.157,-0.851,-5.432,-5.432,13.977
0.449,0.123,-0.826,-6.226,-4.150,9.705
0.555,0.105,-0.850,-4.883,-5.920,6.531
0.539,0.059,-0.863,-1.343,-5.615,3.845
0.532,-0.004,-0.866,-2.258,-6.104,3.662
0.561,-0.040,-0.872,-1.953,-7.324,6.714
0.563,-0.050,-0.873,-2.014,-7.751,10.986
0.547,-0.055,-0.858,-2.502,-8.240,15.198
0.545,-0.048,-0.860,-4.272,-9.094,18.921
0.542,-0.103,-0.859,-7.751,-10.193,21.912
0.538,-0.147,-0.874,-11.414,-12.634,25.635
0.547,-0.154,-0.913,-15.686,-15.808,31.860
0.549,-0.147,-0.944,-18.616,-19.470,38.513
0.540,-0.152,-0.960,-19.653,-23.254,43.823
0.515,-0.174,-0.937,-17.639,-26.978,48.828
0.498,-0.183,-0.907,-14.160,-30.090,53.955
0.490,-0.196,-0.872,-10.986,-31.738,59.509
0.467,-0.192,-0.882,-10.376,-30.273,65.002
0.449,-0.214,-0.873,-14.648,-27.832,70.313
0.442,-0.184,-0.852,-14.587,-26.917,76.233
0.439,-0.124,-0.833,-11.902,-25.269,80.688
0.429,-0.084,-0.834,-11.963,-22.034,82.275
0.427,-0.069,-0.850,-13.977,-18.311,81.543
0.440,-0.064,-0.872,-14.893,-14.832,79.529
0.460,-0.046,-0.881,-13.855,-11.902,76.965
0.476,-0.026,-0.876,-11.780,-9.338,74.524
0.482,-0.026,-0.876,-10.498,-6.958,73.120
0.487,-0.031,-0.879,-10.681,-4.578,73.425
0.501,-0.028,-0.882,-11.169,-2.930,75.195
0.508,-0.015,-0.885,-11.597,-1.770,78.064
0.501,-0.006,-0.891,-12.329,-1.709,80.933
0.495,-0.004,-0.895,-14.160,-2.441,84.167
0.480,-0.000,-0.903,-16.113,-3.479,87.830
0.465,0.003,-0.923,-18.799,-4.822,90.881
0.458,0.006,-0.949,-21.790,-6.836,93.384
0.453,0.009,-0.970,-24.475,-9.583,95.703
0.445,0.017,-0.981,-27.039,-13.062,97.717
0.434,0.032,-0.981,-29.480,-17.273,99.670
0.424,0.044,-0.978,-32.288,-21.423,101.868
0.418,0.056,-0.978,-35.095,-25.391,103.516
0.416,0.069,-0.981,-36.987,-28.992,104.736
0.414,0.076,-0.981,-38.513,-32.410,105.713
0.412,0.098,-0.969,-38.940,-35.645,106.506
0.401,0.119,-0.952,-38.086,-38.269,106.995
0.396,0.117,-0.943,-38.208,-39.917,108.032
0.398,0.119,-0.943,-37.292,-39.978,109.985
0.402,0.131,-0.947,-35.522,-39.368,111.877
0.402,0.155,-0.943,-33.447,-38.879,113.098
0.398,0.184,-0.940,-32.043,-38.818,114.563
0.393,0.210,-0.940,-31.860,-39.734,116.211
0.389,0.229,-0.938,-33.447,-42.114,117.737
0.384,0.255,-0.934,-35.950,-45.410,118.591
0.378,0.283,-0.922,-38.696,-49.316,118.652
0.370,0.301,-0.911,-41.931,-53.406,118.103
0.367,0.321,-0.907,-45.349,-56.641,118.042
0.367,0.336,-0.912,-47.241,-58.777,118.591
0.369,0.343,-0.911,-48.828,-60.242,118.286
0.368,0.349,-0.905,-49.805,-61.584,117.737
0.356,0.358,-0.895,-50.293,-62.866,117.310
0.342,0.371,-0.879,-50.598,-64.392,117.249
0.334,0.398,-0.861,-50.720,-65.552,117.920
0.328,0.422,-0.852,-51.025,-66.650,118.164
0.326,0.435,-0.844,-51.880,-67.566,117.859
0.327,0.435,-0.846,-52.490,-68.298,116.943
0.323,0.429,-0.854,-52.429,-68.237,116.089
0.314,0.429,-0.854,-51.331,-67.688,115.906
0.306,0.438,-0.860,-49.194,-66.589,116.760
0.302,0.451,-0.866,-47.485,-65.063,117.676
0.299,0.466,-0.870,-45.654,-64.453,118.225
0.297,0.486,-0.876,-43.945,-64.514,118.164
0.289,0.479,-0.885,-42.969,-64.880,117.615
0.281,0.492,-0.874,-40.955,-66.040,116.760
0.271,0.504,-0.858,-38.147,-67.749,116.028
0.261,0.505,-0.840,-35.706,-69.275,115.051
0.258,0.520,-0.805,-32.654,-70.190,114.502
0.251,0.539,-0.783,-29.358,-70.068,114.929
0.243,0.563,-0.762,-26.550,-69.519,115.356
0.230,0.588,-0.739,-24.048,-68.542,115.967
0.223,0.621,-0.713,-20.813,-67.627,116.760
0.219,0.651,-0.688,-18.127,-67.017,116.394
0.211,0.685,-0.659,-15.381,-66.162,114.990
0.201,0.732,-0.626,-12.451,-65.063,112.915
0.196,0.783,-0.592,-10.193,-64.087,109.558
0.191,0.834,-0.561,-8.545,-62.195,106.079
0.195,0.880,-0.530,-6.409,-59.937,101.990
0.202,0.924,-0.501,-3.479,-56.885,97.656
0.212,0.962,-0.470,0.854,-52.856,93.262
0.226,1.010,-0.429,7.385,-47.546,88.562
0.236,1.058,-0.388,14.465,-40.833,84.106
0.246,1.100,-0.351,20.996,-32.715,79.041
0.255,1.135,-0.327,26.306,-24.109,72.266
0.259,1.163,-0.312,30.701,-15.320,64.026
0.267,1.179,-0.311,32.471,-7.812,54.138
0.281,1.175,-0.321,31.677,-1.648,42.969
0.296,1.159,-0.344,29.419,3.845,31.067
0.312,1.127,-0.372,26.428,7.996,19.592
0.330,1.082,-0.398,22.400,10.437,8.728
0.353,1.032,-0.427,17.822,12.024,-0.610
0.377,0.987,-0.456,13.123,12.817,-8.118
0.395,0.941,-0.486,9.033,12.817,-14.404
0.411,0.899,-0.516,5.249,11.963,-19.287
0.430,0.857,-0.550,1.282,10.254,-23.132
0.450,0.814,-0.580,-2.808,7.874,-26.428
0.466,0.768,-0.604,-5.615,4.822,-29.114
0.480,0.729,-0.620,-6.714,2.136,-31.128
0.496,0.684,-0.629,-6.226,-0.061,-31.982
0.509,0.643,-0.629,-3.967,-1.526,-31.189
0.519,0.615,-0.613,-0.183,-2.747,-29.175
0.521,0.603,-0.591,4.028,-3.052,-25.635
0.516,0.593,-0.574,7.446,-2.380,-21.790
0.510,0.588,-0.566,9.644,-0.793,-18.494
0.507,0.590,-0.567,10.620,1.221,-15.808
0.503,0.583,-0.575,11.230,2.991,-14.404
0.501,0.579,-0.581,11.963,4.211,-13.916
0.500,0.575,-0.582,12.756,5.310,-13.733
0.500,0.564,-0.585,13.062,6.104,-13.428
0.503,0.553,-0.588,13.245,6.714,-13.306
0.505,0.543,-0.594,13.367,7.080,-12.817
0.508,0.535,-0.600,12.390,7.385,-12.268
0.507,0.529,-0.608,10.376,6.897,-11.719
0.509,0.520,-0.619,7.446,6.042,-11.536
0.512,0.514,-0.623,4.456,4.883,-11.230
0.515,0.510,-0.623,2.258,3.723,-11.108
0.515,0.505,-0.615,0.671,2.625,-10.864
0.517,0.501,-0.606,-0.427,1.831,-10.742
0.517,0.498,-0.608,-2.075,1.587,-10.498
0.521,0.494,-0.613,-3.662,1.770,-9.521
0.524,0.497,-0.612,-4.333,1.770,-8.606
0.521,0.499,-0.609,-4.150,1.831,-7.385
0.519,0.501,-0.610,-3.967,2.441,-6.042
0.521,0.509,-0.612,-3.906,3.052,-4.822
0.522,0.513,-0.615,-3.601,3.662,-3.967
0.522,0.517,-0.614,-3.357,4.456,-3.235
0.523,0.525,-0.611,-2.991,4.944,-2.625
0.523,0.536,-0.611,-2.930,5.554,-1.770
0.523,0.542,-0.612,-3.296,5.371,-0.977
0.524,0.546,-0.609,-4.272,4.944,-0.610
0.523,0.552,-0.607,-5.005,4.333,0.305
0.517,0.563,-0.600,-5.005,3.662,1.099
0.512,0.571,-0.596,-5.432,3.479,1.526
0.507,0.581,-0.598,-6.104,3.601,2.319
0.502,0.595,-0.604,-6.592,4.211,3.113
0.500,0.606,-0.614,-6.836,4.517,3.357
0.500,0.617,-0.621,-6.836,4.761,2.991
0.500,0.624,-0.629,-6.348,4.761,1.892
0.500,0.623,-0.640,-5.981,4.700,0.061
0.507,0.618,-0.650,-5.371,4.761,-1.709
0.516,0.605,-0.654,-4.211,4.517,-3.540
0.522,0.591,-0.649,-2.625,4.333,-4.517

0.040,0.424,-1.123,42.297,58.960,60.425
0.102,0.389,-0.958,25.879,43.579,49.805
0.095,0.366,-0.958,16.357,31.433,37.537
0.063,0.268,-0.977,7.019,22.217,27.527
0.122,0.199,-0.969,3.906,13.489,26.184
0.134,0.165,-0.951,7.935,9.460,29.907
0.122,0.161,-0.962,14.893,11.841,36.133
0.118,0.158,-1.020,21.484,17.395,43.030
0.095,0.171,-1.079,29.419,20.813,48.523
0.074,0.174,-1.137,34.424,18.860,52.551
0.062,0.201,-1.173,35.156,11.414,56.763
0.044,0.221,-1.167,32.410,0.854,59.143
0.042,0.221,-1.157,27.649,-9.399,58.716
0.063,0.194,-1.148,23.499,-18.982,57.434
0.078,0.138,-1.132,21.851,-27.039,57.495
0.089,0.087,-1.094,22.766,-32.593,60.486
0.074,0.043,-1.059,25.269,-35.156,66.528
0.066,0.024,-1.062,27.039,-35.645,74.768
0.070,0.013,-1.071,28.625,-35.278,82.947
0.063,0.020,-1.125,29.175,-35.156,90.393
0.066,0.040,-1.144,26.794,-35.217,96.680
0.065,0.085,-1.149,27.649,-39.124,101.074
0.061,0.153,-1.139,27.588,-44.373,102.661
0.048,0.203,-1.135,25.696,-49.194,102.478
0.036,0.227,-1.141,24.536,-53.345,101.379
0.025,0.240,-1.134,25.940,-56.763,100.769
0.009,0.262,-1.088,30.273,-59.631,100.769
-0.029,0.267,-1.022,34.119,-61.157,100.647
-0.037,0.318,-1.010,34.973,-62.439,99.243
-0.024,0.322,-1.030,31.067,-64.697,97.290
-0.006,0.311,-1.032,28.931,-68.359,96.130
0.003,0.331,-1.000,31.006,-73.425,97.168
0.003,0.366,-0.962,33.081,-77.942,101.501
-0.015,0.394,-0.922,32.715,-80.994,107.971
-0.047,0.431,-0.907,30.212,-83.435,115.723
-0.074,0.474,-0.912,26.672,-86.243,122.681
-0.105,0.522,-0.910,23.804,-90.210,127.625
-0.142,0.565,-0.890,22.339,-94.971,130.310
-0.170,0.599,-0.858,21.057,-99.304,130.066
-0.182,0.630,-0.826,19.775,-102.783,127.991
-0.188,0.653,-0.821,17.883,-105.347,124.695
-0.189,0.660,-0.828,15.808,-107.910,121.643
-0.193,0.652,-0.810,15.442,-110.046,119.263
-0.193,0.649,-0.784,16.724,-110.840,117.188
-0.182,0.649,-0.778,18.250,-110.352,115.417
