aX,aY,aZ,gX,gY,gZ
0.154,0.522,-0.931,18.494,0.427,10.742
0.221,0.540,-0.739,21.912,0.977,16.418
0.217,0.614,-0.745,21.423,2.930,20.935
0.173,0.598,-0.820,12.756,4.700,23.926
0.187,0.582,-0.882,8.667,2.869,25.330
0.196,0.605,-0.858,10.315,-1.526,26.245
0.179,0.629,-0.832,11.902,-4.395,26.978
0.169,0.663,-0.824,12.024,-6.287,26.062
0.156,0.664,-0.784,12.146,-7.874,22.522
0.165,0.645,-0.714,10.376,-9.521,18.188
0.168,0.615,-0.724,1.038,-11.414,15.930
0.171,0.644,-0.808,-11.780,-15.259,17.029
0.140,0.711,-0.808,-17.700,-20.630,18.005
0.118,0.807,-0.778,-16.541,-22.278,14.587
0.104,0.849,-0.742,-11.963,-18.372,7.019
0.073,0.884,-0.655,-4.211,-10.559,-1.648
0.032,0.937,-0.603,2.319,-0.549,-8.789
-0.008,0.981,-0.624,7.996,11.353,-15.076
-0.073,1.036,-0.593,16.724,22.217,-19.958
-0.165,1.133,-0.548,24.841,32.043,-22.583
-0.279,1.281,-0.514,27.405,40.344,-24.719
-0.349,1.452,-0.378,23.682,45.837,-29.114
-0.525,1.533,-0.544,16.785,50.659,-37.842
-0.574,1.561,-0.565,6.470,46.204,-52.368
-0.584,1.612,-0.507,3.723,39.673,-70.923
-0.609,1.606,-0.458,-1.892,36.133,-92.346
-0.605,1.566,-0.438,-11.475,36.377,-114.319
-0.595,1.489,-0.487,-19.348,39.856,-135.925
-0.568,1.372,-0.540,-20.935,45.288,-157.104
-0.534,1.235,-0.598,-18.005,53.467,-176.453
-0.499,1.094,-0.567,-10.010,63.599,-193.787
-0.460,0.982,-0.586,-0.061,75.989,-209.045
-0.417,0.898,-0.603,7.019,88.623,-221.619
-0.372,0.795,-0.621,12.207,97.778,-233.765
-0.314,0.672,-0.613,16.663,103.027,-244.873
-0.266,0.569,-0.573,19.165,105.896,-251.343
-0.240,0.527,-0.534,17.639,108.337,-252.441
-0.252,0.536,-0.520,13.367,110.596,-250.183
-0.300,0.575,-0.525,7.507,113.037,-247.864
-0.357,0.589,-0.566,-0.061,115.723,-248.230
-0.424,0.577,-0.603,-7.751,118.408,-253.235
-0.500,0.548,-0.632,-14.099,120.544,-262.146
-0.559,0.500,-0.639,-21.301,120.483,-274.963
-0.598,0.440,-0.626,-28.931,118.591,-290.649
-0.644,0.356,-0.621,-37.170,115.906,-306.824
-0.673,0.260,-0.591,-44.434,112.549,-322.083
-0.716,0.163,-0.602,-53.955,110.596,-334.473
-0.760,0.062,-0.711,-68.237,111.450,-343.567
-0.784,-0.076,-0.838,-82.214,112.671,-350.342
-0.787,-0.233,-0.964,-88.623,110.962,-357.239
-0.757,-0.427,-1.072,-86.670,104.736,-363.037
-0.674,-0.576,-1.127,-78.918,96.497,-363.586
-0.625,-0.682,-1.111,-68.054,89.966,-357.056
-0.525,-0.681,-1.066,-56.091,87.097,-343.872
-0.457,-0.668,-1.055,-52.734,87.402,-323.975
-0.418,-0.665,-1.079,-54.260,89.417,-301.636
-0.383,-0.674,-1.092,-55.664,88.562,-282.043
-0.344,-0.712,-1.088,-58.167,84.290,-266.602
-0.302,-0.738,-1.091,-61.768,77.515,-252.136
-0.258,-0.771,-1.088,-66.284,69.763,-236.816
-0.210,-0.800,-1.072,-68.359,62.134,-221.191
-0.168,-0.826,-1.052,-67.078,56.030,-204.407
-0.143,-0.845,-1.032,-63.477,52.795,-186.951
-0.130,-0.859,-1.050,-59.875,52.917,-169.922
-0.104,-0.920,-1.115,-56.213,53.772,-154.602
-0.048,-0.980,-1.185,-51.941,52.307,-139.893
-0.000,-1.010,-1.235,-46.326,48.096,-123.596
0.016,-1.011,-1.275,-41.321,42.908,-104.431
0.019,-0.979,-1.293,-37.964,37.109,-83.984
0.021,-0.922,-1.292,-34.790,31.067,-64.941
0.025,-0.854,-1.292,-30.273,26.123,-49.316
0.025,-0.803,-1.291,-26.001,22.522,-37.659
0.030,-0.763,-1.304,-22.095,19.958,-29.236
0.043,-0.727,-1.318,-18.372,17.334,-23.315
0.058,-0.702,-1.320,-15.686,13.733,-18.921
0.079,-0.692,-1.330,-13.062,9.338,-14.954
0.117,-0.685,-1.328,-9.949,4.517,-10.315
0.151,-0.665,-1.302,-5.615,0.366,-5.432
0.165,-0.634,-1.261,-0.610,-2.441,0.488
0.155,-0.604,-1.212,3.540,-3.296,7.019
0.147,-0.558,-1.193,6.897,-2.930,13.123
0.145,-0.506,-1.190,9.583,-2.014,17.944
0.134,-0.460,-1.161,12.024,-1.953,21.423
0.115,-0.402,-1.128,13.550,-2.991,22.949
0.104,-0.356,-1.104,12.939,-4.822,22.644
0.099,-0.323,-1.087,9.338,-7.263,21.301
0.103,-0.309,-1.066,5.188,-10.010,19.958
0.118,-0.303,-1.036,2.441,-12.573,19.348
0.132,-0.287,-1.003,1.404,-13.855,19.165
0.138,-0.277,-0.973,1.343,-13.489,19.531
0.136,-0.262,-0.954,1.099,-11.780,20.447
0.135,-0.241,-0.946,1.038,-9.705,21.851
0.132,-0.218,-0.953,0.549,-8.057,22.522
0.128,-0.206,-0.954,0.549,-7.019,22.339
0.126,-0.196,-0.951,0.671,-6.470,21.423
0.129,-0.203,-0.959,0.732,-6.348,20.142
0.139,-0.211,-0.963,1.770,-5.981,18.494
0.148,-0.212,-0.953,3.723,-5.554,17.944
0.151,-0.212,-0.940,5.493,-5.005,18.372
0.152,-0.205,-0.934,6.409,-4.089,19.897
0.155,-0.182,-0.938,6.104,-2.869,22.461
0.152,-0.158,-0.945,5.310,-2.197,24.536
0.141,-0.138,-0.963,3.784,-2.380,25.696
0.130,-0.122,-0.968,2.563,-2.747,26.306
0.120,-0.106,-0.968,2.136,-3.418,26.062
0.112,-0.092,-0.974,2.563,-3.662,24.963
0.112,-0.084,-0.975,3.113,-3.296,23.254
0.116,-0.085,-0.977,4.272,-2.747,20.752
0.124,-0.091,-0.981,5.676,-1.526,18.188
0.135,-0.102,-0.984,6.775,-0.610,16.357
0.142,-0.110,-0.996,8.362,0.000,15.442
0.148,-0.115,-0.990,9.949,0.671,15.015
0.153,-0.110,-0.989,11.353,1.282,15.137
0.155,-0.107,-0.991,10.986,1.770,15.137
0.152,-0.107,-0.995,9.216,1.343,15.320
0.146,-0.097,-1.003,6.348,-0.183,15.686
0.137,-0.089,-1.007,3.235,-1.892,16.113
0.130,-0.085,-1.006,0.610,-3.906,15.503
0.126,-0.080,-1.011,-0.854,-5.249,13.733
0.131,-0.083,-1.006,-0.977,-5.798,11.353
0.136,-0.088,-0.997,0.488,-5.798,8.545
0.141,-0.104,-0.997,2.380,-4.944,5.981
0.155,-0.130,-0.992,4.395,-4.028,4.456
0.161,-0.142,-0.981,6.592,-3.174,4.517
0.159,-0.148,-0.960,7.629,-2.197,5.432
0.161,-0.141,-0.952,6.531,-1.465,6.653
0.161,-0.132,-0.965,3.723,-1.038,8.057
0.157,-0.128,-0.983,0.610,-1.282,9.094
0.151,-0.124,-0.990,-0.916,-2.441,9.216
0.150,-0.120,-0.984,-0.610,-3.357,8.667
0.149,-0.119,-0.972,0.854,-3.479,7.385
0.144,-0.129,-0.968,2.258,-2.747,6.348
0.144,-0.128,-0.977,3.235,-1.099,5.981
0.152,-0.121,-0.989,4.761,0.183,5.981
0.161,-0.126,-0.988,6.226,0.916,5.737
0.167,-0.130,-0.978,7.324,0.977,5.920
0.167,-0.131,-0.967,7.446,1.160,6.897
0.164,-0.122,-0.957,6.226,1.404,8.240
0.159,-0.103,-0.966,4.028,1.526,9.399
0.154,-0.096,-0.981,1.587,1.404,10.010
0.153,-0.095,-0.986,-0.610,0.793,9.460
0.156,-0.093,-0.980,-1.526,0.000,8.362
0.159,-0.095,-0.980,-1.892,-0.183,6.775
0.162,-0.101,-0.986,-1.892,0.183,5.432
0.161,-0.110,-0.992,-0.916,0.488,4.639
0.161,-0.126,-0.992,0.244,0.366,4.089
0.159,-0.133,-0.990,0.671,0.793,4.700
0.158,-0.129,-0.998,0.916,1.343,6.226
0.155,-0.123,-1.012,1.038,1.648,7.385

-0.152,1.030,-0.417,-6.775,-26.978,30.334
-0.076,1.022,-0.359,-13.062,-31.616,36.560
-0.109,1.183,-0.342,-12.146,-33.752,42.908
-0.202,1.274,-0.296,-15.625,-30.640,41.931
-0.243,1.337,-0.272,-15.381,-23.621,30.579
-0.235,1.286,-0.299,-14.709,-14.832,12.878
-0.213,1.191,-0.337,-14.771,-7.996,-0.671
-0.211,1.155,-0.349,-13.977,-3.174,-5.127
-0.241,1.188,-0.317,-11.963,2.197,-4.028
-0.318,1.337,-0.237,-7.629,9.827,-2.808
-0.412,1.509,-0.166,-5.066,20.325,-6.714
-0.470,1.584,-0.131,-6.714,32.288,-20.447
-0.494,1.560,-0.139,-10.376,43.823,-40.894
-0.510,1.481,-0.169,-13.367,53.955,-60.608
-0.507,1.398,-0.198,-15.564,62.561,-75.439
-0.495,1.329,-0.224,-17.700,69.458,-85.144
-0.506,1.324,-0.263,-20.569,75.073,-92.529
-0.455,1.310,-0.310,-26.001,79.529,-101.379
-0.433,1.306,-0.349,-25.146,80.811,-113.831
-0.456,1.260,-0.370,-23.865,81.726,-128.967
-0.404,1.256,-0.369,-23.926,83.313,-145.386
-0.403,1.169,-0.379,-28.381,87.036,-162.903
-0.402,1.079,-0.389,-35.034,91.675,-179.077
-0.385,1.004,-0.409,-40.344,96.313,-193.848
-0.345,0.887,-0.423,-45.593,100.342,-207.947
-0.282,0.723,-0.460,-49.622,103.271,-219.849
-0.196,0.526,-0.529,-51.697,104.431,-225.769
-0.104,0.364,-0.601,-48.767,103.027,-221.069
-0.077,0.343,-0.626,-41.016,101.196,-203.979
-0.137,0.397,-0.629,-35.583,100.647,-181.030
-0.217,0.455,-0.658,-38.574,102.173,-161.621
-0.257,0.493,-0.741,-48.645,102.783,-150.940
-0.242,0.465,-0.850,-59.021,100.342,-150.330
-0.186,0.387,-0.915,-63.599,94.727,-155.823
-0.127,0.347,-0.895,-60.242,87.708,-163.696
-0.086,0.333,-0.838,-53.833,82.886,-174.316
-0.041,0.315,-0.763,-50.354,81.299,-187.256
-0.005,0.221,-0.716,-51.697,81.238,-200.256
0.005,0.056,-0.736,-56.763,81.665,-208.923
0.034,-0.131,-0.834,-63.110,81.116,-207.092
0.066,-0.272,-0.933,-66.284,79.773,-190.491
0.101,-0.203,-0.964,-60.059,78.796,-163.147
0.072,-0.055,-0.959,-52.429,79.468,-134.338
-0.002,0.076,-0.949,-49.133,80.139,-112.671
-0.057,0.204,-0.950,-50.659,78.430,-101.990
-0.077,0.292,-0.963,-54.993,74.341,-102.417
-0.060,0.316,-0.961,-59.570,68.481,-111.633
-0.028,0.286,-0.921,-61.035,62.927,-125.122
-0.010,0.178,-0.874,-58.716,59.143,-137.878
-0.008,0.028,-0.843,-55.359,58.777,-145.325
0.007,-0.059,-0.846,-51.758,62.988,-143.005
0.032,-0.088,-0.881,-48.096,70.862,-132.874
0.020,-0.090,-0.956,-44.739,78.918,-120.117
-0.006,-0.065,-1.039,-41.748,83.801,-107.300
-0.037,-0.018,-1.101,-38.940,84.351,-95.642
-0.054,0.042,-1.121,-35.583,80.627,-88.745
-0.055,0.071,-1.094,-33.264,74.097,-88.867
-0.045,0.042,-1.066,-33.508,67.078,-94.727
-0.007,-0.047,-1.067,-35.828,60.364,-101.929
0.050,-0.180,-1.095,-37.354,55.054,-106.018
0.101,-0.288,-1.116,-35.461,51.697,-103.821
0.149,-0.345,-1.151,-32.410,50.659,-96.252
0.188,-0.377,-1.199,-29.541,51.453,-84.717
0.214,-0.379,-1.253,-25.879,51.941,-72.083
0.228,-0.353,-1.291,-20.020,50.354,-60.547
0.233,-0.317,-1.301,-13.550,46.509,-51.025
0.237,-0.276,-1.287,-8.057,41.565,-43.823
0.241,-0.241,-1.263,-5.493,35.950,-39.490
0.246,-0.217,-1.239,-5.005,30.762,-36.926
0.253,-0.198,-1.229,-5.188,25.940,-35.034
0.261,-0.193,-1.227,-5.005,22.400,-32.715
0.268,-0.200,-1.225,-3.174,19.958,-28.809
0.277,-0.180,-1.202,0.305,18.066,-23.743
0.265,-0.155,-1.174,3.357,16.418,-18.372
0.254,-0.108,-1.152,3.662,15.259,-12.695
0.244,-0.065,-1.163,1.892,13.855,-8.118
0.234,-0.042,-1.162,-0.244,10.986,-5.493
0.226,-0.023,-1.145,-1.587,6.897,-4.211
0.223,-0.009,-1.134,-3.418,3.113,-3.662
0.219,-0.004,-1.130,-5.188,0.305,-3.052
0.214,0.001,-1.124,-5.554,-1.770,-2.136
0.204,0.017,-1.114,-4.272,-2.930,-1.099
0.199,0.025,-1.106,-2.747,-3.296,0.244
0.199,0.022,-1.101,-1.831,-2.991,2.808
0.194,0.046,-1.089,-0.427,-2.747,6.287
0.173,0.077,-1.064,0.488,-2.930,9.766
0.158,0.112,-1.061,-0.916,-3.235,11.414
0.159,0.134,-1.069,-2.930,-4.028,10.864
0.159,0.141,-1.060,-3.540,-5.676,9.216
0.162,0.139,-1.030,-2.930,-7.324,6.958
0.170,0.139,-1.006,-2.930,-7.751,5.432
0.176,0.136,-0.993,-3.601,-7.507,4.700
0.179,0.134,-0.988,-3.723,-6.714,4.944
0.178,0.130,-0.985,-3.418,-6.042,5.920
0.183,0.135,-0.983,-2.441,-5.615,7.019
0.193,0.143,-0.974,-2.441,-5.371,8.423
0.186,0.145,-0.973,-3.174,-5.249,10.925
0.175,0.161,-0.969,-3.601,-5.615,13.550
0.161,0.179,-0.962,-3.662,-6.531,15.076
0.151,0.194,-0.959,-3.967,-6.958,14.954
0.142,0.204,-0.956,-3.906,-6.775,14.160
0.136,0.206,-0.952,-3.906,-5.798,12.695
0.132,0.205,-0.946,-3.479,-4.578,11.047
0.133,0.205,-0.955,-3.662,-3.174,9.705
0.141,0.200,-0.960,-3.906,-2.380,8.911
0.151,0.204,-0.960,-3.540,-2.075,8.606
0.150,0.210,-0.964,-2.747,-1.892,8.911
0.152,0.218,-0.966,-2.319,-1.831,9.583
0.152,0.229,-0.969,-1.892,-1.770,9.644
0.145,0.229,-0.954,-0.977,-2.014,8.667
0.135,0.229,-0.934,-0.854,-1.953,7.202
0.138,0.233,-0.950,-2.136,-1.099,6.226
0.139,0.233,-0.971,-3.296,-0.427,5.493
0.135,0.229,-0.978,-2.869,-0.610,4.822
0.132,0.226,-0.973,-1.953,-1.160,4.272
0.133,0.227,-0.972,-1.343,-1.343,3.357
0.136,0.228,-0.977,-1.099,-1.465,2.441
0.143,0.220,-0.982,-0.122,-1.648,1.526
0.144,0.210,-0.964,1.770,-1.831,0.732
0.149,0.200,-0.957,2.502,-1.160,0.183
0.157,0.191,-0.962,2.197,-0.122,-0.122
0.161,0.184,-0.969,1.526,0.488,-0.122
0.165,0.185,-0.970,1.038,0.305,0.305
0.165,0.184,-0.960,0.732,-0.610,0.732
0.167,0.177,-0.957,-0.366,-1.221,1.160
0.169,0.174,-0.959,-0.977,-1.465,1.892
0.167,0.176,-0.959,-0.671,-1.526,3.052
0.165,0.183,-0.955,0.488,-0.916,3.906
0.161,0.192,-0.950,1.099,0.061,4.761
0.159,0.202,-0.947,1.282,1.221,4.578
0.157,0.207,-0.956,0.366,1.892,3.479
0.161,0.205,-0.966,-0.793,1.892,2.197
0.166,0.198,-0.974,-1.892,1.465,1.221
0.170,0.186,-0.977,-2.502,0.610,0.000
0.167,0.166,-0.982,-2.441,0.061,-0.122
0.163,0.152,-0.986,-2.197,0.000,0.061
0.161,0.158,-0.990,-1.526,0.244,1.099
0.158,0.168,-0.986,-0.305,0.610,1.953
0.157,0.171,-0.980,0.610,1.160,2.014
0.160,0.177,-0.973,0.977,1.465,1.648
0.163,0.184,-0.968,0.671,1.526,1.404
0.162,0.179,-0.968,-0.305,1.465,0.854
0.162,0.171,-0.966,-1.099,1.221,0.427
0.158,0.163,-0.977,-2.014,1.038,0.061
0.167,0.164,-0.985,-2.197,0.610,-0.427
0.171,0.150,-0.987,-2.808,0.183,0.000
0.168,0.146,-0.987,-2.747,0.000,1.831
0.162,0.160,-0.975,-1.953,0.305,3.967
0.156,0.175,-0.973,-1.404,0.732,4.822

-0.409,1.403,-0.104,50.903,-67.444,29.602
-0.348,1.153,-0.007,51.514,-65.430,17.151
-0.237,1.127,0.078,51.147,-69.458,20.813
-0.257,1.153,0.168,41.016,-69.763,31.982
-0.284,1.232,0.190,28.137,-65.430,41.809
-0.266,1.295,0.221,26.978,-55.725,43.884
-0.280,1.313,0.263,37.292,-37.720,38.513
-0.297,1.318,0.309,47.974,-15.808,31.616
-0.319,1.293,0.301,50.781,3.235,24.719
-0.340,1.315,0.283,45.166,15.869,19.897
-0.387,1.372,0.325,37.964,22.827,15.076
-0.420,1.424,0.353,30.029,30.457,6.714
-0.435,1.412,0.351,23.804,40.833,-4.028
-0.443,1.372,0.342,23.193,52.917,-14.221
-0.454,1.319,0.356,26.489,65.063,-22.461
-0.479,1.285,0.388,29.541,76.172,-26.855
-0.504,1.279,0.411,27.649,86.365,-28.931
-0.512,1.303,0.412,22.034,95.886,-31.311
-0.554,1.348,0.368,15.503,107.422,-36.377
-0.551,1.353,0.372,7.324,117.859,-44.922
-0.538,1.380,0.370,6.470,126.465,-57.556
-0.538,1.387,0.383,5.310,137.146,-74.158
-0.515,1.362,0.394,0.793,149.719,-92.468
-0.498,1.305,0.389,-7.690,163.696,-109.619
-0.473,1.239,0.357,-17.639,178.955,-125.061
-0.479,1.136,0.277,-29.602,194.519,-138.306
-0.461,1.009,0.198,-39.673,206.848,-147.888
-0.428,0.932,0.128,-45.959,214.355,-153.137
-0.401,0.882,0.061,-52.246,217.957,-155.090
-0.384,0.850,0.007,-58.960,218.933,-154.358
-0.375,0.812,-0.036,-65.613,218.201,-153.076
-0.359,0.745,-0.082,-71.838,216.614,-152.100
-0.344,0.707,-0.103,-75.928,214.355,-150.940
-0.344,0.672,-0.138,-80.811,212.219,-148.376
-0.350,0.644,-0.175,-88.196,210.022,-144.836
-0.361,0.606,-0.226,-98.267,207.397,-140.930
-0.359,0.558,-0.245,-107.971,203.735,-139.038
-0.348,0.495,-0.231,-118.347,199.951,-140.076
-0.353,0.427,-0.182,-130.981,198.425,-143.311
-0.375,0.358,-0.218,-151.123,201.538,-146.912
-0.355,0.233,-0.411,-177.734,207.397,-148.682
-0.317,0.071,-0.665,-198.608,210.632,-146.606
-0.273,-0.017,-0.849,-204.163,208.679,-140.198
-0.242,-0.085,-0.983,-197.693,203.308,-130.920
-0.216,-0.059,-1.072,-184.326,195.862,-119.873
-0.201,-0.023,-1.102,-169.922,186.340,-110.901
-0.193,0.024,-1.092,-158.569,175.537,-105.408
-0.182,0.067,-1.060,-151.001,163.696,-102.661
-0.153,0.073,-1.066,-147.888,151.306,-101.074
-0.114,0.027,-1.076,-147.217,138.916,-98.694
-0.099,-0.012,-1.081,-145.081,126.221,-93.750
-0.116,-0.038,-1.093,-141.724,114.929,-85.266
-0.143,-0.045,-1.111,-139.893,105.835,-73.425
-0.172,-0.035,-1.137,-137.573,98.877,-61.218
-0.195,-0.010,-1.166,-133.667,93.933,-51.819
-0.216,0.029,-1.197,-126.587,90.515,-45.898
-0.216,0.083,-1.228,-117.920,88.318,-44.067
-0.200,0.117,-1.251,-108.398,86.731,-46.143
-0.184,0.119,-1.240,-99.365,84.473,-51.514
-0.175,0.095,-1.248,-92.163,81.909,-58.044
-0.155,0.043,-1.280,-87.585,78.796,-63.416
-0.125,-0.037,-1.344,-82.031,74.402,-65.186
-0.085,-0.121,-1.416,-73.669,69.397,-61.646
-0.050,-0.164,-1.459,-62.927,64.087,-52.124
-0.031,-0.128,-1.473,-52.124,58.716,-39.124
-0.031,-0.060,-1.470,-44.434,53.040,-26.794
-0.044,0.008,-1.457,-39.001,45.776,-18.188
-0.051,0.063,-1.442,-34.241,37.292,-14.343
-0.048,0.088,-1.421,-29.602,28.992,-14.771
-0.044,0.096,-1.389,-24.902,22.461,-17.029
-0.026,0.098,-1.363,-20.447,18.921,-19.836
-0.003,0.091,-1.332,-16.479,17.090,-22.644
0.018,0.074,-1.319,-11.841,15.991,-24.536
0.043,0.075,-1.314,-6.592,15.442,-24.780
0.064,0.067,-1.300,-1.526,14.526,-23.682
0.080,0.052,-1.283,2.563,13.123,-21.179
0.095,0.058,-1.267,5.554,10.559,-17.456
0.101,0.077,-1.234,6.775,7.385,-12.817
0.099,0.104,-1.200,6.470,3.662,-8.179
0.089,0.127,-1.171,5.005,-0.366,-5.371
0.082,0.143,-1.149,2.258,-4.028,-3.723
0.079,0.163,-1.134,0.000,-7.507,-2.869
0.072,0.178,-1.121,-1.831,-10.925,-2.319
0.059,0.184,-1.099,-2.441,-14.221,-1.526
0.047,0.194,-1.073,-1.404,-16.479,-0.854
0.039,0.185,-1.035,0.183,-17.395,-0.427
0.031,0.161,-0.993,1.831,-16.785,-0.183
0.047,0.151,-0.974,3.174,-14.648,1.282
0.061,0.162,-0.979,3.723,-11.658,4.333
0.055,0.186,-0.981,4.578,-9.338,9.399
0.034,0.216,-0.971,6.165,-8.728,14.404
0.018,0.248,-0.946,7.751,-8.850,16.663
0.010,0.273,-0.929,7.629,-9.216,16.296
0.017,0.291,-0.922,6.653,-9.155,14.343
0.021,0.302,-0.913,6.042,-8.789,12.207
0.019,0.307,-0.897,5.859,-8.545,11.047
0.019,0.309,-0.884,5.249,-8.118,10.193
0.013,0.309,-0.871,3.601,-6.958,9.827
0.007,0.320,-0.882,0.305,-5.493,9.766
0.012,0.331,-0.918,-3.052,-4.333,9.705
0.013,0.330,-0.945,-4.028,-3.967,9.460
0.008,0.332,-0.943,-2.075,-4.578,8.789
-0.000,0.339,-0.920,0.854,-4.944,7.751
-0.007,0.348,-0.911,1.465,-4.211,6.897
0.000,0.355,-0.917,0.854,-2.991,5.798
0.004,0.352,-0.913,0.977,-2.441,4.211
0.007,0.347,-0.902,1.526,-2.258,2.441
0.012,0.332,-0.894,1.465,-1.709,1.160
0.021,0.326,-0.901,0.854,-0.793,0.488
0.032,0.320,-0.914,0.000,-0.061,0.549
0.034,0.316,-0.926,-0.854,0.427,1.221
0.031,0.319,-0.932,-0.732,0.488,2.014
0.031,0.321,-0.927,-0.854,0.427,2.625
0.036,0.326,-0.925,-1.221,0.305,3.235
0.038,0.333,-0.940,-2.563,0.366,3.357
0.035,0.340,-0.958,-3.418,0.732,3.784
0.029,0.345,-0.970,-3.113,0.671,3.784
0.025,0.345,-0.977,-2.441,0.610,2.747
0.024,0.333,-0.979,-1.770,0.427,1.404
0.019,0.321,-0.965,-0.732,0.610,0.244
0.016,0.316,-0.968,-0.916,1.709,-0.122
0.018,0.313,-0.987,-1.709,2.625,-0.183
0.020,0.312,-1.007,-1.953,3.113,-0.122
0.018,0.313,-1.016,-1.465,2.686,-0.122
0.017,0.318,-1.016,0.305,1.648,-0.244
0.014,0.318,-1.009,0.916,0.549,-0.916
0.015,0.312,-1.005,1.465,-0.183,-1.831
0.023,0.305,-0.996,2.258,-1.221,-2.808
0.031,0.297,-0.973,2.869,-2.258,-3.540
0.034,0.290,-0.953,2.930,-2.686,-3.967
0.042,0.277,-0.945,2.258,-2.502,-3.662
0.047,0.269,-0.945,0.671,-2.197,-3.296
0.049,0.262,-0.955,-0.610,-1.892,-2.319
0.052,0.250,-0.965,-1.648,-1.953,-1.648
0.052,0.250,-0.965,-1.831,-2.380,-0.732
0.045,0.254,-0.959,-1.648,-2.869,0.610
0.039,0.257,-0.951,-1.526,-3.174,1.648
0.036,0.268,-0.942,-1.648,-3.235,2.319
0.037,0.273,-0.942,-1.526,-2.930,2.136
0.039,0.274,-0.943,-1.221,-2.319,1.770
0.034,0.277,-0.933,-0.732,-1.282,1.648
0.035,0.283,-0.936,-0.366,0.000,1.648
0.035,0.269,-0.944,-0.916,1.038,1.526
0.034,0.260,-0.956,-1.831,1.526,2.197
0.036,0.275,-0.965,-2.136,1.282,3.601
0.033,0.290,-0.974,-3.052,0.732,4.883
0.022,0.295,-0.983,-4.944,0.305,6.042
0.019,0.302,-0.988,-5.249,-0.671,6.470
0.019,0.310,-0.989,-5.005,-1.587,5.920

-0.102,1.290,-0.139,9.460,-55.481,25.757
-0.043,1.260,-0.049,18.127,-53.833,15.808
-0.067,1.281,-0.001,25.208,-44.250,9.949
-0.098,1.259,0.025,23.315,-32.471,7.080
-0.112,1.276,0.088,23.804,-21.301,4.578
-0.119,1.280,0.106,21.667,-10.376,2.136
-0.116,1.262,0.110,15.808,-2.014,0.305
-0.139,1.309,0.190,11.047,5.310,-0.549
-0.175,1.317,0.214,3.296,16.235,-2.808
-0.184,1.362,0.205,-3.357,28.992,-5.676
-0.203,1.418,0.206,-1.892,44.617,-11.108
-0.212,1.424,0.204,5.981,64.270,-21.362
-0.206,1.356,0.202,16.602,83.801,-34.607
-0.192,1.259,0.178,22.217,100.159,-46.204
-0.183,1.184,0.121,19.592,110.596,-53.040
-0.179,1.163,0.081,11.414,114.441,-55.176
-0.196,1.173,0.063,-0.916,114.502,-55.725
-0.235,1.209,-0.023,-16.296,116.272,-58.105
-0.236,1.201,0.026,-34.058,119.446,-65.308
-0.258,1.219,0.034,-44.434,120.667,-76.538
-0.295,1.236,0.010,-54.688,127.563,-91.125
-0.266,1.173,-0.095,-65.918,137.268,-108.704
-0.211,1.045,-0.239,-70.801,144.897,-127.563
-0.165,0.966,-0.304,-64.514,147.705,-142.151
-0.129,0.925,-0.289,-53.284,148.254,-152.039
-0.111,0.885,-0.250,-46.448,149.414,-159.363
-0.089,0.823,-0.233,-46.265,151.245,-165.649
-0.069,0.763,-0.232,-51.086,152.832,-170.410
-0.063,0.720,-0.258,-59.692,153.442,-172.668
-0.068,0.693,-0.325,-71.350,152.954,-172.546
-0.073,0.668,-0.441,-84.900,151.855,-171.143
-0.067,0.639,-0.571,-95.154,150.452,-170.288
-0.055,0.617,-0.661,-98.694,148.254,-172.180
-0.048,0.589,-0.717,-96.863,145.569,-177.429
-0.041,0.524,-0.739,-92.224,143.738,-184.692
-0.034,0.452,-0.738,-87.585,142.822,-192.993
-0.024,0.360,-0.751,-86.243,143.005,-200.745
-0.001,0.241,-0.822,-88.074,143.250,-205.933
0.058,0.123,-0.926,-88.806,141.846,-205.750
0.118,0.045,-0.992,-84.167,137.878,-198.242
0.154,0.023,-0.998,-75.989,131.531,-185.120
0.167,0.041,-0.954,-68.359,123.840,-169.678
0.188,0.097,-0.889,-63.171,117.249,-155.029
0.187,0.141,-0.838,-60.852,113.159,-143.677
0.154,0.159,-0.795,-62.012,111.755,-136.963
0.117,0.164,-0.791,-65.796,112.915,-134.277
0.090,0.164,-0.799,-70.496,115.417,-135.132
0.069,0.121,-0.868,-75.195,118.347,-139.221
0.076,0.017,-1.019,-77.637,120.056,-143.982
0.128,-0.117,-1.178,-71.838,118.225,-144.592
0.197,-0.221,-1.214,-54.749,112.305,-138.000
0.213,-0.222,-1.131,-34.058,105.652,-124.756
0.185,-0.146,-1.031,-23.499,101.624,-107.544
0.157,-0.070,-0.994,-29.907,99.182,-91.187
0.134,-0.011,-1.029,-44.800,94.299,-79.468
0.112,0.035,-1.075,-57.922,84.900,-73.669
0.087,0.066,-1.074,-66.040,72.571,-73.242
0.062,0.081,-1.052,-70.374,61.340,-76.904
0.047,0.068,-1.047,-73.242,53.894,-83.496
0.041,-0.028,-1.092,-73.120,50.232,-90.637
0.085,-0.179,-1.178,-68.359,48.523,-94.055
0.164,-0.253,-1.204,-54.932,47.546,-90.210
0.204,-0.239,-1.186,-38.208,48.462,-79.651
0.207,-0.207,-1.153,-27.283,51.270,-65.186
0.190,-0.162,-1.136,-22.766,54.382,-51.392
0.177,-0.103,-1.161,-20.813,55.420,-41.565
0.177,-0.071,-1.200,-21.362,53.162,-37.903
0.187,-0.063,-1.231,-22.095,48.462,-38.879
0.201,-0.073,-1.262,-21.301,42.542,-41.443
0.214,-0.086,-1.282,-18.738,36.377,-43.274
0.233,-0.100,-1.293,-15.442,31.006,-44.067
0.253,-0.128,-1.283,-11.719,25.940,-43.030
0.272,-0.149,-1.257,-7.935,20.752,-40.771
0.290,-0.156,-1.225,-4.395,15.869,-36.438
0.301,-0.144,-1.182,-2.075,11.902,-30.212
0.303,-0.121,-1.148,-1.099,9.399,-23.865
0.302,-0.101,-1.131,-1.587,7.812,-18.738
0.293,-0.084,-1.114,-2.380,6.531,-15.198
0.290,-0.068,-1.108,-3.662,5.066,-12.939
0.284,-0.056,-1.100,-4.761,3.723,-11.475
0.278,-0.046,-1.093,-5.554,2.380,-10.315
0.277,-0.038,-1.093,-5.859,0.854,-9.644
0.278,-0.039,-1.097,-5.615,-0.305,-8.911
0.274,-0.043,-1.098,-4.333,-1.221,-7.263
0.277,-0.059,-1.100,-2.686,-2.075,-5.493
0.288,-0.064,-1.108,-0.732,-2.625,-2.869
0.291,-0.058,-1.094,2.441,-3.174,1.465
0.275,-0.034,-1.058,5.066,-3.845,6.714
0.252,0.004,-1.017,5.371,-4.211,10.864
0.246,0.036,-1.023,2.563,-4.333,12.756
0.250,0.049,-1.041,-0.916,-5.066,12.878
0.247,0.060,-1.041,-1.282,-6.348,12.451
0.240,0.071,-1.015,0.061,-7.629,12.024
0.236,0.076,-0.979,0.671,-8.423,11.169
0.242,0.078,-0.965,-0.366,-7.935,10.132
0.240,0.078,-0.970,-1.709,-7.141,10.010
0.232,0.077,-0.987,-1.770,-6.531,10.498
0.232,0.076,-0.994,-0.305,-6.104,11.780
0.230,0.085,-0.987,2.808,-5.981,12.695
0.219,0.098,-0.981,5.493,-5.127,13.733
0.214,0.113,-0.980,7.202,-4.395,14.343
0.213,0.127,-0.955,8.789,-4.211,14.587
0.205,0.141,-0.924,8.850,-4.028,13.855
0.208,0.153,-0.922,6.958,-3.540,12.756
0.211,0.160,-0.927,4.272,-3.235,11.963
0.204,0.163,-0.928,2.502,-3.479,11.719
0.204,0.171,-0.925,1.648,-3.723,11.353
0.206,0.177,-0.922,0.916,-3.784,10.559
0.209,0.179,-0.934,0.000,-3.418,9.766
0.220,0.177,-0.946,0.732,-3.052,9.644
0.227,0.180,-0.937,2.319,-2.930,9.583
0.221,0.183,-0.926,4.089,-2.502,9.460
0.213,0.182,-0.910,4.272,-1.648,9.399
0.208,0.186,-0.900,3.113,-0.549,8.789
0.204,0.193,-0.922,0.549,0.610,7.935
0.205,0.196,-0.954,-2.014,0.793,6.775
0.205,0.196,-0.968,-3.113,-0.305,5.249
0.204,0.191,-0.963,-3.174,-1.770,3.479
0.199,0.181,-0.945,-2.747,-2.930,1.648
0.204,0.170,-0.937,-3.418,-3.113,0.305
0.219,0.157,-0.944,-3.601,-2.441,-0.183
0.227,0.145,-0.949,-2.686,-1.648,0.305
0.229,0.142,-0.939,-1.038,-0.793,1.587
0.232,0.149,-0.936,-0.183,0.305,2.747
0.238,0.153,-0.951,-0.977,1.160,3.113
0.239,0.148,-0.967,-1.892,1.404,3.418
0.240,0.142,-0.958,-1.282,0.488,3.601
0.234,0.146,-0.946,-0.610,0.122,3.113
0.232,0.147,-0.954,-1.465,0.549,2.563
0.231,0.143,-0.971,-2.258,1.038,2.380
0.231,0.145,-0.970,-1.160,0.977,2.197
0.226,0.146,-0.945,0.671,1.099,1.709
0.223,0.140,-0.933,1.221,1.953,1.038
0.228,0.133,-0.958,-0.244,3.540,1.099
0.231,0.127,-0.990,-1.099,4.150,1.770
0.226,0.133,-0.998,-0.366,3.784,2.808
0.222,0.146,-0.996,0.854,3.052,3.052
0.219,0.157,-0.998,1.343,2.747,2.563
0.221,0.158,-0.991,1.221,2.258,1.465
0.227,0.145,-0.981,0.549,1.709,0.122
0.240,0.135,-0.980,-0.366,1.404,-0.671
0.241,0.129,-0.983,-0.610,1.343,0.061
0.230,0.127,-0.976,-1.099,1.404,1.343
0.227,0.133,-0.980,-1.709,1.709,2.258
0.226,0.139,-0.988,-2.197,2.014,2.502
0.224,0.143,-0.988,-2.319,2.075,2.197
0.219,0.148,-0.977,-1.587,2.136,2.014
0.219,0.145,-0.980,-1.648,2.563,0.854
0.226,0.134,-0.992,-1.953,2.991,-0.061

0.269,0.534,-0.806,6.104,4.822,7.629
0.277,0.498,-0.746,3.967,9.949,1.831
0.311,0.540,-0.785,5.676,13.855,-4.150
0.293,0.466,-0.804,1.465,16.846,-9.583
0.330,0.423,-0.832,-1.770,17.395,-13.123
0.354,0.401,-0.834,-1.099,15.259,-13.672
0.354,0.366,-0.820,-2.075,13.245,-11.597
0.347,0.372,-0.817,-4.761,11.780,-6.653
0.327,0.425,-0.812,-8.789,11.536,-1.587
0.274,0.508,-0.819,-12.695,12.085,1.892
0.238,0.565,-0.818,-15.808,12.695,0.732
0.229,0.599,-0.829,-16.968,13.000,-4.333
0.225,0.617,-0.830,-16.235,13.672,-10.437
0.215,0.615,-0.820,-14.465,14.832,-16.296
0.213,0.614,-0.827,-12.634,16.296,-19.836
0.204,0.625,-0.876,-11.780,15.259,-21.667
0.193,0.580,-0.853,-15.076,15.137,-20.691
0.202,0.672,-0.867,-12.207,14.526,-16.541
0.159,0.756,-0.878,-12.451,11.047,-15.503
0.102,0.816,-0.899,-15.442,6.714,-19.043
0.041,0.834,-0.936,-18.250,1.709,-26.611
0.100,0.870,-0.935,-19.592,-2.869,-37.415
0.093,0.871,-0.908,-18.005,-5.127,-49.805
0.067,0.850,-0.876,-18.250,-4.639,-61.523
0.085,0.843,-0.849,-17.151,-1.099,-71.350
0.113,0.844,-0.831,-11.658,4.883,-81.238
0.136,0.805,-0.809,-5.554,12.329,-91.919
0.161,0.754,-0.798,-0.122,20.203,-101.135
0.198,0.693,-0.806,5.554,26.672,-106.995
0.231,0.626,-0.802,10.437,31.372,-109.436
0.258,0.577,-0.774,15.686,34.668,-108.948
0.268,0.544,-0.740,20.325,37.903,-105.713
0.254,0.539,-0.717,21.606,41.504,-101.624
0.234,0.564,-0.739,18.677,44.861,-97.717
0.217,0.569,-0.770,13.245,46.326,-95.886
0.203,0.551,-0.808,6.470,45.654,-97.168
0.204,0.513,-0.856,1.465,43.396,-100.647
0.225,0.446,-0.897,-0.916,40.039,-104.614
0.234,0.377,-0.894,-0.488,36.621,-107.239
0.223,0.335,-0.861,1.343,34.485,-107.483
0.209,0.305,-0.837,1.770,34.119,-106.812
0.196,0.261,-0.862,-0.427,35.461,-105.591
0.190,0.233,-0.908,-2.808,38.086,-102.905
0.183,0.225,-0.928,-1.038,39.917,-99.976
0.159,0.235,-0.909,2.380,41.016,-97.778
0.134,0.259,-0.892,2.380,42.114,-96.741
0.137,0.273,-0.915,-1.160,43.091,-97.900
0.164,0.245,-0.936,-3.967,43.457,-100.891
0.179,0.190,-0.940,-2.136,43.457,-104.248
0.177,0.140,-0.925,1.587,44.983,-105.530
0.175,0.116,-0.917,3.906,48.584,-103.088
0.165,0.100,-0.917,5.188,53.040,-98.755
0.141,0.095,-0.937,5.859,56.641,-94.360
0.114,0.101,-0.946,6.287,58.533,-90.271
0.081,0.129,-0.972,4.944,59.204,-85.999
0.066,0.172,-1.012,1.709,59.509,-83.130
0.059,0.198,-1.041,-0.854,57.922,-83.191
0.062,0.198,-1.034,-1.709,54.077,-85.938
0.074,0.196,-1.011,-1.892,50.842,-88.257
0.084,0.188,-0.987,-2.930,49.438,-89.600
0.088,0.177,-0.967,-4.456,49.194,-90.210
0.107,0.179,-0.953,-6.226,49.744,-90.149
0.117,0.172,-0.948,-7.019,50.598,-89.417
0.107,0.154,-0.923,-7.812,51.392,-88.806
0.081,0.135,-0.904,-9.460,52.551,-87.524
0.042,0.116,-0.918,-12.878,53.772,-86.121
0.005,0.094,-0.956,-18.188,54.321,-84.961
-0.038,0.066,-0.995,-22.888,52.979,-84.534
-0.073,0.048,-1.018,-26.917,49.438,-84.717
-0.097,0.052,-1.016,-32.532,43.518,-85.693
-0.121,0.043,-1.013,-39.978,35.889,-87.280
-0.143,-0.008,-1.013,-46.997,27.161,-90.027
-0.153,-0.072,-1.002,-52.307,19.104,-92.712
-0.151,-0.132,-0.997,-55.847,13.123,-93.811
-0.140,-0.186,-0.996,-57.007,10.010,-93.811
-0.127,-0.232,-1.001,-55.908,9.033,-93.323
-0.119,-0.275,-1.018,-52.795,8.911,-91.919
-0.095,-0.310,-1.039,-48.096,9.583,-89.233
-0.066,-0.337,-1.055,-41.626,10.803,-86.426
-0.038,-0.369,-1.073,-33.752,12.024,-82.764
-0.004,-0.391,-1.089,-25.696,13.184,-78.369
0.026,-0.408,-1.101,-17.578,14.587,-72.632
0.042,-0.436,-1.100,-9.949,16.174,-66.650
0.059,-0.447,-1.102,-3.906,17.639,-60.852
0.066,-0.454,-1.108,0.916,18.738,-54.443
0.083,-0.437,-1.121,3.723,18.311,-47.729
0.104,-0.428,-1.124,5.310,15.564,-42.297
0.120,-0.419,-1.115,6.653,11.292,-37.415
0.135,-0.399,-1.095,7.874,7.141,-32.532
0.143,-0.379,-1.059,8.728,3.784,-28.015
0.148,-0.358,-1.035,8.667,1.648,-24.109
0.160,-0.342,-1.030,8.240,0.793,-20.447
0.178,-0.326,-1.028,7.874,-0.122,-17.090
0.192,-0.319,-1.024,7.935,-0.977,-14.038
0.203,-0.307,-1.013,8.118,-1.160,-10.315
0.215,-0.276,-1.017,7.446,-1.038,-6.348
0.221,-0.244,-1.034,5.737,-0.549,-2.136
0.220,-0.214,-1.049,5.005,-0.122,2.014
0.218,-0.186,-1.056,4.028,-0.366,4.944
0.211,-0.156,-1.057,3.601,-0.610,7.263
0.206,-0.129,-1.060,3.296,-0.549,8.606
0.206,-0.106,-1.075,2.258,-0.061,9.338
0.209,-0.102,-1.088,2.502,0.610,9.521
0.208,-0.108,-1.090,4.211,1.160,9.521
0.205,-0.106,-1.085,5.493,1.282,10.376
0.203,-0.095,-1.090,5.310,0.916,12.512
0.198,-0.079,-1.095,3.967,-0.305,15.015
0.192,-0.061,-1.098,2.380,-2.075,17.456
0.187,-0.036,-1.094,1.404,-4.578,19.348
0.175,-0.010,-1.086,0.732,-6.836,20.996
0.163,0.015,-1.073,0.244,-8.606,21.851
0.153,0.032,-1.063,-0.183,-9.644,21.973
0.149,0.049,-1.051,-0.305,-10.193,20.996
0.149,0.064,-1.042,0.366,-10.254,19.531
0.146,0.067,-1.031,1.526,-9.888,18.066
0.147,0.064,-1.019,2.808,-9.399,16.418
0.150,0.068,-1.006,4.028,-8.911,15.686
0.151,0.082,-0.998,5.005,-8.240,15.686
0.146,0.091,-0.994,4.883,-7.812,15.686
0.143,0.094,-0.997,4.272,-7.690,15.747
0.141,0.098,-0.997,4.517,-7.812,15.381
0.136,0.102,-0.987,4.700,-8.484,14.343
0.134,0.102,-0.976,4.639,-9.033,12.878
0.145,0.099,-0.976,4.395,-8.972,11.292
0.148,0.091,-0.972,5.005,-8.484,9.949
0.142,0.088,-0.971,5.798,-7.751,10.132
0.138,0.096,-0.984,6.042,-7.019,11.047
0.133,0.103,-0.998,6.104,-6.409,11.841
0.125,0.106,-1.000,6.958,-6.653,11.780
0.122,0.110,-0.998,7.874,-7.202,10.742
0.123,0.101,-0.995,8.423,-7.629,9.827
0.126,0.089,-0.985,9.521,-7.812,8.850
0.133,0.081,-0.982,10.315,-7.324,7.996
0.139,0.073,-0.977,10.925,-6.958,7.324
0.142,0.055,-0.979,11.047,-6.836,6.592
0.149,0.035,-0.984,10.803,-7.202,6.226
0.153,0.022,-0.987,10.193,-8.118,7.263
0.159,0.018,-0.986,9.766,-9.399,8.606
0.158,0.026,-0.979,8.972,-11.108,10.193
0.159,0.025,-0.973,7.629,-12.451,11.414
0.166,0.020,-0.970,6.226,-13.489,11.230
0.173,0.010,-0.979,5.371,-14.038,10.864
0.178,-0.005,-0.989,4.944,-13.794,11.169
0.183,-0.012,-1.001,6.165,-13.489,12.207
0.182,-0.021,-1.019,8.301,-12.634,13.855
0.179,-0.035,-1.045,11.108,-11.902,16.418
0.184,-0.034,-1.067,15.198,-11.414,19.287
0.183,-0.019,-1.048,20.264,-11.536,22.034
0.183,0.009,-1.020,24.048,-11.597,24.048

0.454,1.105,-0.257,10.376,-26.978,26.489
0.467,1.055,-0.200,13.916,-24.353,22.461
0.516,1.102,-0.197,12.817,-20.386,22.705
0.500,1.121,-0.192,11.475,-16.479,22.095
0.493,1.129,-0.193,2.441,-14.465,19.470
0.500,1.126,-0.179,-3.784,-14.099,14.038
0.499,1.127,-0.167,-9.644,-13.184,7.751
0.495,1.127,-0.174,-14.587,-10.681,1.587
0.496,1.133,-0.172,-13.184,-7.080,-5.493
0.501,1.100,-0.165,-6.287,-0.916,-14.160
0.502,1.041,-0.173,1.465,7.751,-22.095
0.509,0.996,-0.201,5.676,14.893,-26.184
0.512,0.967,-0.251,5.310,17.944,-26.123
0.501,0.965,-0.294,1.953,15.930,-23.743
0.477,0.996,-0.301,-1.709,10.193,-20.935
0.483,1.068,-0.193,-5.981,4.089,-20.325
0.400,1.111,-0.280,-15.198,0.366,-23.560
0.388,1.097,-0.327,-21.301,-3.235,-29.724
0.408,1.114,-0.327,-21.240,-6.836,-37.354
0.406,1.120,-0.295,-20.447,-9.033,-45.837
0.406,1.126,-0.250,-19.470,-8.667,-54.871
0.426,1.131,-0.208,-18.372,-5.676,-64.087
0.440,1.140,-0.186,-17.334,-0.244,-74.219
0.436,1.118,-0.196,-16.602,7.263,-84.290
0.443,1.066,-0.237,-15.503,15.137,-92.407
0.473,1.003,-0.301,-11.841,21.179,-98.083
0.490,0.945,-0.370,-5.249,24.597,-100.769
0.497,0.907,-0.408,3.235,25.146,-99.792
0.501,0.906,-0.408,13.123,22.827,-96.497
0.496,0.929,-0.375,22.583,20.081,-93.323
0.487,0.950,-0.328,29.663,18.311,-91.919
0.480,0.969,-0.286,33.936,18.738,-92.529
0.478,0.972,-0.262,35.278,21.301,-95.520
0.474,0.957,-0.244,34.729,25.452,-100.464
0.471,0.928,-0.243,31.982,30.151,-107.361
0.480,0.865,-0.269,28.381,34.485,-115.662
0.516,0.773,-0.316,25.818,36.743,-123.779
0.568,0.663,-0.364,26.184,36.194,-129.639
0.617,0.574,-0.374,30.884,32.410,-131.226
0.642,0.514,-0.347,36.743,27.405,-128.601
0.654,0.477,-0.304,40.161,24.048,-122.131
0.659,0.458,-0.249,40.527,23.743,-115.112
0.650,0.463,-0.217,38.818,27.039,-108.459
0.642,0.479,-0.218,34.180,32.593,-103.333
0.629,0.500,-0.226,28.625,39.246,-99.548
0.602,0.527,-0.266,23.132,45.837,-98.755
0.574,0.543,-0.334,18.555,51.086,-101.685
0.545,0.533,-0.410,17.212,53.894,-107.971
0.536,0.493,-0.472,20.813,52.979,-115.356
0.540,0.446,-0.501,29.419,49.438,-121.826
0.549,0.393,-0.500,40.833,45.471,-126.038
0.555,0.352,-0.479,49.805,42.236,-128.174
0.552,0.329,-0.459,53.528,40.527,-129.333
0.541,0.309,-0.444,51.208,38.879,-130.920
0.526,0.289,-0.423,44.067,36.377,-133.728
0.516,0.271,-0.403,33.020,32.837,-138.428
0.507,0.244,-0.402,20.203,29.358,-144.104
0.509,0.189,-0.431,8.545,26.062,-150.330
0.517,0.123,-0.451,2.380,23.254,-157.471
0.513,0.050,-0.445,3.235,21.667,-164.368
0.517,-0.010,-0.431,8.179,23.376,-170.227
0.526,-0.085,-0.418,14.954,28.992,-175.110
0.531,-0.170,-0.414,22.156,37.476,-178.772
0.540,-0.253,-0.412,27.405,46.753,-180.664
0.574,-0.330,-0.428,28.198,55.664,-180.298
0.589,-0.430,-0.491,20.752,62.073,-176.819
0.624,-0.525,-0.596,7.629,64.209,-169.739
0.675,-0.582,-0.688,-3.540,59.631,-159.790
0.696,-0.602,-0.718,-8.606,50.049,-148.682
0.694,-0.579,-0.712,-8.850,39.551,-137.695
0.692,-0.554,-0.694,-7.996,32.776,-128.601
0.696,-0.551,-0.674,-5.920,29.907,-122.375
0.698,-0.555,-0.658,-1.343,29.602,-119.202
0.716,-0.556,-0.620,4.456,30.212,-117.920
0.733,-0.556,-0.553,11.475,31.311,-117.920
0.742,-0.560,-0.490,16.968,33.508,-118.164
0.758,-0.600,-0.455,18.433,36.865,-116.943
0.777,-0.647,-0.430,18.494,40.894,-112.244
0.783,-0.699,-0.422,18.250,45.227,-103.577
0.768,-0.719,-0.434,15.686,49.988,-90.088
0.745,-0.667,-0.478,10.071,54.443,-73.975
0.709,-0.584,-0.536,2.136,56.396,-59.814
0.661,-0.514,-0.598,-6.287,54.749,-50.354
0.624,-0.495,-0.650,-14.099,49.744,-47.852
0.612,-0.500,-0.690,-20.264,42.664,-50.598
0.617,-0.546,-0.715,-25.024,34.668,-56.458
0.627,-0.607,-0.740,-28.564,26.611,-62.134
0.655,-0.672,-0.746,-30.334,19.592,-65.552
0.694,-0.741,-0.744,-29.602,14.465,-65.369
0.734,-0.786,-0.739,-27.893,11.780,-60.791
0.759,-0.800,-0.738,-25.635,11.414,-52.185
0.768,-0.790,-0.733,-22.034,12.329,-41.260
0.760,-0.763,-0.726,-16.663,13.977,-30.701
0.751,-0.723,-0.715,-10.742,15.808,-22.156
0.739,-0.692,-0.716,-6.226,17.944,-16.296
0.739,-0.681,-0.733,-3.540,19.043,-13.550
0.748,-0.678,-0.756,-0.854,18.494,-12.451
0.758,-0.678,-0.763,2.014,16.174,-11.475
0.769,-0.671,-0.748,4.639,12.634,-10.315
0.780,-0.667,-0.720,6.470,8.850,-7.935
0.785,-0.655,-0.687,6.775,5.737,-4.822
0.789,-0.630,-0.662,5.676,3.235,-1.099
0.788,-0.614,-0.644,4.089,1.160,2.869
0.785,-0.603,-0.621,2.686,-0.610,6.226
0.779,-0.576,-0.596,1.282,-1.709,9.216
0.772,-0.542,-0.584,-0.732,-2.258,12.207
0.768,-0.513,-0.583,-3.235,-2.075,14.526
0.766,-0.494,-0.595,-5.432,-1.648,15.991
0.759,-0.479,-0.613,-5.798,-1.465,17.151
0.753,-0.467,-0.620,-4.761,-1.038,18.188
0.740,-0.456,-0.618,-2.380,-0.366,18.738
0.733,-0.441,-0.613,0.366,0.793,19.226
0.723,-0.430,-0.615,2.686,2.197,19.287
0.712,-0.418,-0.614,4.150,3.113,19.043
0.708,-0.405,-0.598,4.822,3.479,18.738
0.704,-0.391,-0.577,4.578,3.174,17.883
0.701,-0.372,-0.573,2.625,2.747,16.602
0.704,-0.362,-0.578,-0.610,2.014,15.442
0.708,-0.357,-0.578,-3.174,0.610,14.343
0.710,-0.352,-0.577,-4.639,-0.671,13.611
0.707,-0.353,-0.580,-5.005,-1.587,13.123
0.706,-0.352,-0.583,-5.493,-1.953,12.573
0.704,-0.345,-0.583,-5.371,-2.075,12.756
0.705,-0.334,-0.577,-4.089,-2.136,12.878
0.709,-0.323,-0.567,-2.441,-2.136,12.390
0.709,-0.325,-0.558,-0.977,-1.587,11.475
0.716,-0.328,-0.552,-0.549,-0.671,10.803
0.726,-0.327,-0.554,-1.038,0.366,10.559
0.724,-0.327,-0.568,-1.587,1.343,10.742
0.715,-0.328,-0.584,-2.380,1.831,11.292
0.715,-0.330,-0.583,-2.808,1.526,11.719
0.715,-0.327,-0.572,-2.625,1.038,11.536
0.716,-0.318,-0.566,-3.174,1.038,11.047
0.720,-0.312,-0.573,-4.456,1.770,10.498
0.717,-0.309,-0.591,-5.005,2.502,10.437
0.717,-0.317,-0.599,-4.517,2.991,10.254
0.719,-0.311,-0.591,-2.563,3.418,10.193
0.712,-0.312,-0.589,-0.732,4.395,9.705
0.709,-0.316,-0.599,1.221,5.615,9.338
0.719,-0.321,-0.613,2.380,6.714,9.521
0.721,-0.316,-0.621,4.150,7.324,10.620
0.711,-0.303,-0.618,5.981,7.324,11.536
0.702,-0.289,-0.610,6.897,6.775,11.841
0.698,-0.280,-0.606,6.592,5.737,11.292
0.695,-0.273,-0.610,5.920,4.700,9.705
0.694,-0.273,-0.607,4.639,3.296,7.629
0.692,-0.274,-0.598,2.869,1.709,5.432
0.698,-0.281,-0.592,0.549,0.061,3.479
0.707,-0.294,-0.591,-1.587,-1.221,1.892

0.206,1.004,-0.492,41.138,-35.095,16.785
0.236,1.086,-0.142,45.410,-46.509,20.508
0.139,1.223,0.062,43.335,-43.823,22.583
0.048,1.345,0.155,17.761,-35.583,19.958
0.013,1.351,0.105,-9.399,-25.818,9.827
0.019,1.217,0.001,-29.724,-19.287,-2.686
-0.007,1.183,-0.024,-38.086,-16.541,-6.104
-0.073,1.240,0.023,-36.743,-12.695,-1.831
-0.181,1.333,0.197,-26.672,-3.479,1.587
-0.283,1.446,0.406,-12.451,16.235,-0.427
-0.368,1.572,0.528,-3.296,43.579,-6.775
-0.460,1.633,0.540,-2.136,71.289,-17.944
-0.535,1.609,0.518,-5.005,93.445,-32.654
-0.608,1.500,0.485,-12.817,109.924,-45.837
-0.582,1.464,0.439,-23.621,122.986,-56.763
-0.589,1.352,0.319,-40.405,132.568,-68.542
-0.498,1.300,0.267,-57.678,131.836,-80.322
-0.471,1.265,0.242,-66.833,133.240,-93.872
-0.491,1.220,0.199,-76.294,137.939,-109.619
-0.465,1.105,0.124,-87.891,143.555,-127.136
-0.432,1.056,0.047,-97.229,148.987,-145.508
-0.468,0.998,-0.038,-108.154,155.457,-163.940
-0.498,0.928,-0.098,-117.004,161.743,-181.274
-0.535,0.845,-0.177,-122.009,168.335,-200.195
-0.560,0.727,-0.314,-131.165,173.401,-219.971
-0.521,0.502,-0.480,-138.306,174.438,-238.770
-0.463,0.307,-0.565,-136.047,170.349,-252.075
-0.414,0.267,-0.585,-126.343,165.649,-257.019
-0.375,0.260,-0.638,-123.108,163.940,-258.118
-0.343,0.176,-0.737,-131.104,164.856,-258.545
-0.312,0.060,-0.834,-139.404,164.978,-258.972
-0.281,-0.035,-0.910,-140.686,164.246,-260.071
-0.252,-0.126,-1.011,-138.062,164.185,-262.573
-0.208,-0.252,-1.166,-134.155,164.185,-265.991
-0.134,-0.409,-1.327,-125.183,162.231,-266.602
-0.012,-0.577,-1.449,-106.812,156.067,-260.803
0.132,-0.690,-1.481,-81.116,145.447,-246.155
0.226,-0.700,-1.439,-55.908,133.118,-221.313
0.249,-0.603,-1.347,-40.222,122.253,-187.317
0.250,-0.504,-1.313,-39.429,114.929,-148.315
0.257,-0.437,-1.352,-49.255,107.910,-111.084
0.241,-0.355,-1.387,-56.885,97.717,-80.505
0.195,-0.274,-1.382,-57.434,86.243,-60.913
0.154,-0.209,-1.364,-55.237,76.172,-52.307
0.130,-0.175,-1.349,-51.941,68.787,-51.636
0.126,-0.188,-1.365,-47.913,63.660,-54.993
0.142,-0.229,-1.410,-41.260,60.303,-58.594
0.161,-0.267,-1.467,-31.189,57.556,-58.472
0.178,-0.269,-1.496,-19.287,54.382,-53.711
0.189,-0.268,-1.494,-7.324,50.537,-45.593
0.197,-0.237,-1.458,3.235,45.410,-36.316
0.192,-0.176,-1.409,11.108,39.124,-27.954
0.185,-0.114,-1.350,14.771,32.898,-21.790
0.184,-0.062,-1.299,15.259,26.550,-17.700
0.189,-0.017,-1.255,13.489,20.508,-16.235
0.193,0.005,-1.218,10.437,14.587,-16.479
0.202,0.019,-1.191,7.629,9.399,-17.578
0.226,0.031,-1.156,5.981,4.333,-18.433
0.235,0.042,-1.107,5.432,0.671,-18.799
0.238,0.051,-1.063,5.066,-0.671,-18.372
0.249,0.048,-1.031,3.235,-1.343,-17.517
0.266,0.044,-1.013,0.671,-1.404,-16.113
0.280,0.050,-1.017,-1.587,-1.160,-13.367
0.286,0.051,-1.026,-3.601,-0.916,-9.766
0.281,0.049,-1.029,-4.578,-1.526,-5.859
0.273,0.065,-1.031,-4.578,-2.625,-2.258
0.258,0.079,-1.029,-4.578,-3.662,1.282
0.244,0.096,-1.029,-4.822,-4.822,4.028
0.227,0.111,-1.024,-4.700,-5.859,5.798
0.216,0.122,-1.012,-4.211,-6.836,6.287
0.217,0.134,-1.000,-3.235,-7.507,6.104
0.228,0.135,-0.984,-1.892,-7.874,5.615
0.223,0.130,-0.953,0.305,-7.690,5.554
0.214,0.133,-0.917,1.526,-6.836,6.226
0.220,0.148,-0.911,0.488,-5.371,7.385
0.222,0.167,-0.916,-1.404,-4.089,9.155
0.224,0.181,-0.924,-2.258,-3.845,10.681
0.235,0.190,-0.931,-2.380,-3.906,12.146
0.239,0.206,-0.932,-1.831,-4.150,13.794
0.234,0.223,-0.941,-1.526,-3.784,15.320
0.231,0.232,-0.959,-1.099,-3.601,16.541
0.225,0.245,-0.956,0.305,-3.662,17.212
0.218,0.266,-0.946,2.808,-4.150,17.334
0.218,0.280,-0.942,3.540,-3.784,16.479
0.213,0.289,-0.945,3.662,-3.418,15.564
0.205,0.293,-0.946,3.784,-3.296,14.465
0.198,0.295,-0.942,3.174,-3.418,12.817
0.201,0.300,-0.943,2.258,-3.723,11.047
0.205,0.306,-0.943,0.793,-4.211,9.644
0.208,0.311,-0.948,-0.610,-4.700,8.362
0.208,0.306,-0.947,-0.732,-5.188,7.568
0.207,0.299,-0.936,-0.061,-5.615,6.531
0.211,0.296,-0.926,0.549,-5.310,5.493
0.213,0.291,-0.926,0.916,-4.578,4.517
0.216,0.290,-0.922,0.732,-3.845,3.906
0.221,0.290,-0.918,0.732,-3.174,3.052
0.223,0.284,-0.919,0.244,-2.625,1.953
0.227,0.274,-0.928,-0.671,-2.380,0.793
0.231,0.266,-0.934,-1.221,-2.258,0.183
0.234,0.254,-0.920,-0.671,-2.747,-0.305
0.235,0.246,-0.914,-1.465,-2.686,-0.488
0.238,0.240,-0.926,-2.930,-2.502,0.244
0.234,0.233,-0.940,-3.662,-2.319,1.770
0.234,0.234,-0.943,-2.625,-2.502,3.052
0.230,0.241,-0.919,-0.488,-2.930,3.967
0.221,0.249,-0.900,-0.366,-2.441,4.822
0.220,0.260,-0.905,-1.526,-1.160,5.615
0.221,0.275,-0.919,-1.953,0.000,5.798
0.219,0.283,-0.926,-1.160,0.732,4.944
0.216,0.282,-0.915,0.122,1.160,3.357
0.220,0.273,-0.908,0.732,1.709,1.587
0.235,0.262,-0.918,-0.610,2.441,0.183
0.247,0.253,-0.939,-2.502,2.441,-0.427
0.250,0.245,-0.949,-2.991,1.831,-0.122
0.248,0.234,-0.950,-2.869,0.854,0.793
0.252,0.228,-0.954,-3.113,0.671,1.953
0.251,0.231,-0.962,-2.686,0.854,3.479
0.242,0.238,-0.978,-2.136,1.282,5.066
0.234,0.249,-0.987,-1.038,1.526,6.470
0.224,0.262,-0.994,-0.183,1.221,6.958
0.218,0.270,-0.995,0.549,0.427,6.042
0.213,0.275,-0.987,0.977,-0.488,4.395
0.214,0.273,-0.981,1.465,-1.038,2.625
0.222,0.270,-0.971,1.465,-1.343,0.732
0.231,0.266,-0.959,1.770,-1.343,-0.977
0.236,0.252,-0.950,1.892,-1.099,-2.258
0.245,0.240,-0.944,0.854,-0.977,-2.869
0.253,0.235,-0.948,0.122,-0.916,-2.075
0.254,0.238,-0.950,-0.305,-0.916,-0.305
0.249,0.245,-0.943,-0.793,-1.465,0.854
0.247,0.244,-0.941,-1.343,-2.197,0.977
0.248,0.238,-0.945,-1.831,-2.563,0.732
0.248,0.237,-0.946,-2.014,-2.380,0.610
0.248,0.229,-0.947,-1.404,-2.136,0.671
0.244,0.221,-0.939,-0.366,-2.075,1.099
0.239,0.225,-0.935,-0.671,-1.526,1.892
0.239,0.235,-0.942,-1.770,-1.465,2.747
0.235,0.239,-0.948,-2.319,-1.892,3.357
0.226,0.239,-0.942,-2.319,-2.258,3.784
0.222,0.244,-0.942,-2.319,-2.380,3.906
0.224,0.246,-0.949,-2.197,-1.892,3.540
0.222,0.243,-0.948,-1.953,-1.343,2.930
0.223,0.245,-0.955,-1.282,-0.793,2.747
0.229,0.244,-0.959,-0.610,-0.610,2.441
0.230,0.245,-0.958,0.122,-0.793,2.319
0.230,0.248,-0.958,1.221,-1.160,2.747
0.233,0.254,-0.958,0.916,-1.404,3.235
0.232,0.260,-0.956,1.160,-2.075,3.662
0.225,0.259,-0.945,1.709,-2.686,3.906

0.283,0.793,-0.525,12.756,-5.859,-27.466
0.345,0.827,-0.324,1.404,-11.963,-23.865
0.328,0.901,-0.300,-7.874,-10.254,-22.217
0.301,0.906,-0.304,-20.020,-6.897,-23.193
0.308,0.901,-0.291,-27.100,-3.784,-27.039
0.318,0.877,-0.310,-32.837,0.183,-30.212
0.312,0.854,-0.354,-36.194,5.615,-29.724
0.285,0.890,-0.362,-31.616,12.268,-27.100
0.255,0.935,-0.338,-21.179,20.935,-26.855
0.232,0.956,-0.334,-11.841,30.884,-29.907
0.212,0.945,-0.333,-5.493,39.001,-34.119
0.194,0.926,-0.342,-2.563,43.884,-37.170
0.171,0.896,-0.371,-4.089,45.227,-38.452
0.147,0.892,-0.386,-7.385,43.762,-37.292
0.113,0.953,-0.452,-12.939,41.443,-35.400
0.072,0.939,-0.421,-22.522,40.466,-36.011
0.072,0.980,-0.448,-23.560,38.513,-38.391
0.078,1.017,-0.449,-23.499,36.743,-44.250
0.082,1.027,-0.440,-23.132,36.682,-53.345
0.098,1.007,-0.431,-22.095,38.879,-63.416
0.120,0.992,-0.424,-20.935,43.396,-73.669
0.130,0.983,-0.424,-20.264,49.805,-83.801
0.145,0.968,-0.437,-20.935,57.068,-93.933
0.180,0.950,-0.454,-21.362,63.904,-104.004
0.218,0.910,-0.474,-19.653,69.580,-114.197
0.256,0.823,-0.511,-15.808,74.646,-122.742
0.295,0.705,-0.568,-10.620,78.491,-126.648
0.332,0.655,-0.584,-1.648,80.566,-124.207
0.350,0.668,-0.548,7.874,80.383,-117.798
0.348,0.681,-0.527,10.681,79.834,-112.366
0.354,0.678,-0.528,7.446,78.003,-109.253
0.358,0.664,-0.545,1.831,74.402,-108.398
0.357,0.631,-0.558,-4.211,70.007,-109.924
0.360,0.586,-0.562,-10.742,65.613,-112.427
0.368,0.550,-0.582,-16.907,62.500,-114.929
0.385,0.499,-0.640,-23.132,61.340,-116.943
0.419,0.430,-0.716,-27.344,61.340,-116.699
0.454,0.376,-0.773,-25.146,61.462,-113.831
0.471,0.345,-0.804,-17.700,62.378,-108.643
0.486,0.337,-0.812,-8.667,63.416,-102.051
0.499,0.358,-0.795,-0.366,63.538,-95.520
0.495,0.380,-0.768,4.456,62.439,-90.149
0.482,0.400,-0.734,4.211,59.875,-86.426
0.476,0.419,-0.705,-1.038,56.641,-84.412
0.470,0.432,-0.700,-10.132,53.833,-85.205
0.466,0.434,-0.714,-18.799,51.941,-87.341
0.460,0.419,-0.752,-24.902,50.781,-91.003
0.471,0.368,-0.819,-27.222,49.866,-94.482
0.504,0.300,-0.887,-24.841,48.462,-96.130
0.543,0.241,-0.921,-17.456,45.959,-94.788
0.562,0.214,-0.909,-6.958,43.213,-89.539
0.554,0.224,-0.859,2.869,40.466,-81.360
0.534,0.257,-0.799,7.568,38.696,-73.059
0.506,0.293,-0.756,6.958,38.147,-66.711
0.485,0.327,-0.736,2.014,38.391,-63.293
0.475,0.365,-0.738,-5.005,39.429,-62.134
0.470,0.387,-0.753,-11.597,40.649,-63.049
0.462,0.401,-0.772,-15.442,41.382,-66.040
0.458,0.404,-0.788,-16.968,41.382,-71.106
0.471,0.372,-0.808,-16.907,40.649,-77.148
0.493,0.327,-0.831,-15.259,38.940,-81.543
0.513,0.281,-0.814,-11.597,36.316,-82.458
0.512,0.257,-0.788,-8.179,34.485,-78.918
0.495,0.265,-0.775,-6.836,34.119,-72.815
0.469,0.287,-0.772,-7.935,34.546,-66.650
0.437,0.319,-0.760,-10.498,34.790,-63.660
0.412,0.339,-0.751,-14.893,35.095,-64.819
0.404,0.351,-0.757,-20.264,35.583,-68.420
0.400,0.350,-0.776,-24.780,36.377,-73.364
0.391,0.329,-0.797,-27.283,37.354,-78.796
0.379,0.298,-0.811,-26.245,38.452,-84.106
0.368,0.266,-0.809,-22.827,40.161,-89.111
0.357,0.218,-0.802,-18.860,42.603,-93.933
0.361,0.159,-0.798,-15.930,45.959,-97.778
0.376,0.105,-0.794,-14.099,49.194,-99.304
0.394,0.072,-0.803,-14.221,51.636,-98.328
0.400,0.043,-0.828,-15.564,52.551,-94.727
0.393,0.023,-0.860,-17.334,51.819,-89.600
0.387,-0.003,-0.906,-19.836,49.866,-84.717
0.383,-0.020,-0.956,-22.217,46.204,-80.322
0.386,-0.021,-0.983,-23.315,40.955,-77.026
0.390,-0.023,-0.998,-23.682,35.156,-75.073
0.397,-0.042,-0.993,-22.705,29.297,-74.097
0.405,-0.075,-0.968,-20.691,24.780,-73.792
0.417,-0.103,-0.946,-18.738,22.278,-73.242
0.434,-0.138,-0.944,-17.395,21.057,-71.228
0.454,-0.180,-0.965,-17.456,20.630,-67.261
0.468,-0.210,-1.000,-17.517,19.531,-61.646
0.478,-0.213,-1.025,-16.785,17.334,-53.894
0.474,-0.205,-1.041,-15.686,14.771,-45.593
0.474,-0.194,-1.058,-14.282,12.207,-38.696
0.486,-0.182,-1.055,-11.169,10.132,-33.203
0.489,-0.176,-1.029,-7.446,8.423,-29.419
0.492,-0.161,-0.998,-3.906,7.751,-26.611
0.502,-0.154,-0.978,-2.319,8.057,-24.292
0.513,-0.158,-0.978,-1.831,8.545,-21.973
0.519,-0.156,-0.985,-1.465,8.667,-19.043
0.524,-0.141,-0.985,-0.793,7.812,-15.930
0.528,-0.141,-0.988,-1.221,6.165,-12.573
0.534,-0.136,-0.978,-1.343,3.906,-8.728
0.529,-0.124,-0.964,-0.610,1.892,-5.676
0.518,-0.107,-0.960,-0.488,1.099,-2.991
0.512,-0.088,-0.967,-0.671,0.854,-0.305
0.509,-0.071,-0.969,-0.488,0.732,1.343
0.513,-0.065,-0.966,0.549,0.305,1.953
0.516,-0.059,-0.947,2.075,-0.366,2.197
0.509,-0.056,-0.927,2.441,-0.305,2.930
0.507,-0.049,-0.924,0.977,0.122,4.395
0.510,-0.041,-0.937,-0.610,0.488,6.042
0.507,-0.040,-0.950,-1.526,0.122,7.263
0.508,-0.031,-0.949,-0.977,-0.854,8.972
0.500,-0.013,-0.935,0.122,-2.136,10.986
0.484,0.002,-0.922,0.549,-2.808,12.573
0.475,0.011,-0.919,0.061,-3.113,13.367
0.468,0.024,-0.914,0.366,-3.357,13.550
0.465,0.040,-0.908,-0.061,-3.296,13.123
0.466,0.048,-0.912,-0.610,-3.479,12.451
0.463,0.043,-0.914,-0.610,-3.845,11.841
0.465,0.043,-0.903,-0.366,-4.456,11.658
0.469,0.052,-0.892,-0.061,-4.639,12.024
0.467,0.062,-0.879,-0.183,-4.639,12.451
0.469,0.074,-0.867,-0.366,-4.700,13.000
0.469,0.086,-0.862,-0.549,-4.333,13.123
0.463,0.094,-0.865,-0.793,-3.845,13.306
0.455,0.107,-0.866,-0.671,-3.235,13.245
0.447,0.117,-0.870,-0.183,-2.808,12.939
0.439,0.123,-0.877,-0.183,-2.502,12.024
0.437,0.134,-0.879,-0.610,-2.380,10.986
0.431,0.138,-0.886,-1.160,-2.502,9.460
0.428,0.129,-0.898,-2.014,-3.113,7.935
0.431,0.119,-0.902,-2.258,-3.662,6.897
0.442,0.114,-0.890,-1.160,-4.639,6.287
0.452,0.105,-0.870,-0.061,-4.883,5.859
0.460,0.100,-0.856,-0.122,-4.333,6.287
0.461,0.105,-0.854,-0.305,-3.235,7.324
0.459,0.114,-0.856,-0.549,-2.258,8.118
0.458,0.125,-0.856,-0.427,-1.526,8.362
0.452,0.132,-0.857,-0.122,-0.977,7.874
0.450,0.134,-0.858,0.305,-0.671,7.019
0.447,0.136,-0.863,0.000,-0.610,5.981
0.443,0.134,-0.878,-0.793,-0.610,4.883
0.440,0.134,-0.888,-0.916,-0.793,3.723
0.440,0.126,-0.891,-0.366,-1.343,2.808
0.447,0.112,-0.881,1.160,-1.404,1.770
0.456,0.105,-0.870,2.686,-0.977,0.610
0.459,0.100,-0.861,3.418,-0.244,0.244
0.459,0.100,-0.864,3.235,0.610,0.916
0.463,0.099,-0.874,2.625,1.648,1.648
0.469,0.097,-0.885,2.441,2.380,1.953

0.239,0.944,-0.255,14.282,-16.541,-11.353
0.254,0.919,-0.198,3.540,-11.414,-12.512
0.290,0.982,-0.246,-6.592,-7.812,-12.512
0.254,0.957,-0.288,-16.235,-4.333,-14.160
0.260,0.938,-0.340,-17.456,-2.502,-16.296
0.271,0.922,-0.316,-12.390,-0.854,-16.846
0.237,0.945,-0.226,-8.240,3.479,-14.771
0.183,1.022,-0.199,-13.000,10.803,-10.742
0.153,1.102,-0.272,-23.254,16.846,-9.216
0.127,1.141,-0.334,-28.259,18.555,-13.428
0.115,1.133,-0.313,-25.085,18.433,-22.583
0.104,1.101,-0.266,-19.470,19.775,-32.471
0.087,1.058,-0.260,-16.724,23.437,-39.185
0.083,1.016,-0.270,-16.418,28.076,-41.931
0.116,1.047,-0.284,-15.442,32.654,-42.480
0.034,0.993,-0.325,-18.127,37.659,-42.175
0.050,1.021,-0.356,-21.423,39.368,-41.077
0.053,1.074,-0.366,-20.020,40.100,-42.542
0.037,1.095,-0.368,-22.522,41.199,-46.997
0.031,1.093,-0.393,-25.879,42.908,-54.321
0.041,1.075,-0.428,-28.137,43.762,-64.087
0.066,1.073,-0.448,-28.687,44.189,-74.829
0.073,1.069,-0.452,-27.588,45.166,-85.693
0.074,1.045,-0.453,-26.794,46.753,-97.229
0.083,1.019,-0.448,-26.917,48.401,-108.765
0.101,0.969,-0.455,-26.123,50.781,-120.239
0.133,0.893,-0.470,-24.780,52.979,-130.676
0.156,0.813,-0.500,-21.606,55.481,-138.428
0.199,0.706,-0.530,-16.174,58.533,-143.188
0.249,0.666,-0.546,-10.986,62.073,-144.470
0.276,0.647,-0.555,-6.653,65.430,-143.433
0.289,0.615,-0.559,-4.822,67.627,-142.090
0.303,0.580,-0.576,-5.493,68.176,-140.381
0.328,0.545,-0.597,-7.019,66.895,-138.367
0.360,0.509,-0.620,-9.949,64.026,-136.169
0.390,0.480,-0.628,-12.329,60.608,-134.277
0.411,0.457,-0.612,-13.916,57.678,-132.263
0.434,0.434,-0.594,-15.564,56.152,-131.042
0.455,0.404,-0.591,-16.418,56.885,-129.395
0.462,0.374,-0.604,-16.418,59.753,-126.892
0.465,0.347,-0.639,-16.235,64.209,-122.925
0.475,0.329,-0.679,-14.587,68.420,-117.981
0.476,0.336,-0.710,-11.108,71.106,-112.183
0.466,0.363,-0.702,-8.118,70.740,-106.506
0.450,0.402,-0.676,-7.935,68.115,-101.685
0.427,0.435,-0.658,-12.634,64.758,-98.145
0.404,0.454,-0.667,-21.729,61.646,-96.985
0.395,0.455,-0.707,-32.227,59.143,-98.877
0.390,0.443,-0.753,-39.612,56.396,-103.943
0.382,0.412,-0.786,-42.847,52.979,-111.572
0.379,0.365,-0.805,-42.175,49.438,-119.385
0.386,0.302,-0.816,-39.856,46.875,-125.610
0.405,0.232,-0.812,-36.438,45.471,-129.395
0.427,0.175,-0.810,-32.227,44.983,-129.395
0.441,0.133,-0.809,-29.358,44.861,-126.099
0.448,0.110,-0.807,-27.344,44.800,-119.812
0.436,0.107,-0.806,-25.391,45.410,-112.488
0.410,0.117,-0.810,-24.658,46.997,-106.262
0.395,0.130,-0.824,-25.024,49.194,-103.088
0.386,0.140,-0.835,-24.414,50.659,-103.088
0.370,0.138,-0.833,-23.010,50.781,-105.652
0.352,0.122,-0.825,-21.729,50.049,-109.253
0.336,0.102,-0.814,-21.301,49.316,-112.732
0.324,0.086,-0.808,-21.973,50.110,-115.234
0.320,0.046,-0.836,-24.597,52.246,-117.371
0.325,-0.014,-0.896,-28.320,53.772,-118.958
0.344,-0.062,-0.951,-30.640,52.429,-118.408
0.361,-0.097,-0.979,-31.494,48.523,-115.417
0.360,-0.120,-0.989,-32.471,43.091,-109.863
0.353,-0.124,-0.987,-34.973,37.170,-103.333
0.352,-0.122,-0.978,-37.659,32.043,-97.595
0.351,-0.122,-0.954,-38.757,28.137,-94.299
0.349,-0.130,-0.942,-38.391,26.062,-93.384
0.350,-0.149,-0.946,-37.048,25.879,-93.140
0.354,-0.177,-0.965,-34.912,27.466,-93.079
0.358,-0.198,-0.987,-30.823,29.785,-92.773
0.364,-0.223,-1.006,-25.391,31.921,-92.468
0.378,-0.273,-1.046,-19.775,33.264,-92.041
0.410,-0.338,-1.083,-14.038,33.020,-90.332
0.440,-0.388,-1.104,-7.812,30.762,-85.388
0.460,-0.414,-1.105,-1.709,27.283,-77.332
0.476,-0.412,-1.079,2.075,23.315,-66.895
0.476,-0.393,-1.046,2.991,18.982,-56.091
0.462,-0.359,-1.022,0.061,15.015,-46.387
0.453,-0.320,-1.013,-5.432,11.230,-38.879
0.452,-0.290,-1.027,-11.047,7.751,-34.607
0.454,-0.277,-1.036,-14.343,3.784,-32.959
0.459,-0.270,-1.027,-14.893,-0.122,-32.654
0.464,-0.271,-1.007,-13.428,-3.235,-32.715
0.472,-0.278,-0.991,-12.512,-4.639,-32.532
0.478,-0.293,-0.981,-10.864,-4.456,-31.860
0.491,-0.317,-0.976,-8.667,-3.540,-30.701
0.509,-0.341,-0.958,-5.798,-2.441,-28.687
0.526,-0.360,-0.950,-2.686,-0.732,-25.146
0.536,-0.364,-0.948,0.366,1.160,-19.409
0.540,-0.351,-0.953,2.808,2.991,-12.390
0.539,-0.321,-0.945,4.517,3.601,-5.432
0.528,-0.279,-0.936,5.066,3.418,0.244
0.507,-0.244,-0.938,3.662,2.747,4.883
0.495,-0.209,-0.940,1.953,1.404,7.446
0.490,-0.179,-0.935,0.732,-0.183,8.240
0.484,-0.162,-0.930,0.000,-1.770,7.690
0.480,-0.152,-0.924,-0.977,-2.747,6.775
0.480,-0.147,-0.922,-1.648,-2.991,5.981
0.482,-0.158,-0.927,-1.892,-2.869,5.493
0.494,-0.166,-0.934,-1.343,-2.747,6.226
0.504,-0.162,-0.935,-0.305,-2.808,7.996
0.497,-0.152,-0.927,1.221,-2.563,10.925
0.483,-0.134,-0.919,1.404,-2.502,13.916
0.476,-0.109,-0.922,0.183,-2.747,15.930
0.466,-0.083,-0.934,-1.770,-3.235,17.151
0.458,-0.060,-0.947,-3.479,-4.578,17.517
0.450,-0.046,-0.951,-3.662,-6.348,16.785
0.443,-0.048,-0.940,-2.869,-7.996,15.320
0.449,-0.052,-0.921,-1.282,-8.911,13.550
0.458,-0.046,-0.904,0.916,-8.545,12.207
0.463,-0.035,-0.885,3.235,-7.690,11.963
0.458,-0.028,-0.863,4.578,-6.592,12.024
0.452,-0.013,-0.850,5.554,-5.432,12.085
0.458,-0.006,-0.848,5.249,-4.272,11.230
0.463,-0.002,-0.849,4.639,-3.601,10.376
0.458,0.000,-0.851,3.601,-3.235,9.521
0.453,0.001,-0.860,1.953,-3.601,8.789
0.459,0.000,-0.867,-0.061,-4.333,7.874
0.464,-0.000,-0.871,-0.916,-4.944,6.775
0.465,-0.015,-0.875,-0.427,-5.554,5.188
0.473,-0.034,-0.873,-0.122,-5.981,4.395
0.486,-0.034,-0.864,0.916,-5.737,4.761
0.487,-0.027,-0.853,2.380,-5.066,5.859
0.479,-0.022,-0.841,2.869,-4.150,6.409
0.477,-0.016,-0.834,2.808,-3.235,6.470
0.480,-0.019,-0.839,2.502,-2.136,5.615
0.487,-0.027,-0.847,2.380,-0.977,4.700
0.488,-0.032,-0.854,3.235,0.122,4.639
0.480,-0.037,-0.864,4.272,1.526,5.066
0.477,-0.041,-0.877,4.944,2.319,5.676
0.479,-0.037,-0.885,5.188,2.380,6.714
0.476,-0.029,-0.890,4.944,1.648,7.202
0.473,-0.028,-0.888,3.479,0.183,7.568
0.474,-0.030,-0.886,2.563,-1.526,7.935
0.474,-0.031,-0.879,2.197,-2.747,7.568
0.472,-0.032,-0.876,2.319,-2.991,7.324
0.473,-0.033,-0.876,2.625,-2.441,7.080
0.475,-0.032,-0.872,3.052,-1.526,6.653
0.481,-0.030,-0.875,4.150,-0.793,6.348
0.486,-0.028,-0.879,4.578,-0.061,6.226
0.487,-0.030,-0.878,4.700,0.000,6.165
0.488,-0.029,-0.872,4.822,-0.244,6.409
0.486,-0.027,-0.870,4.395,-0.488,7.019

0.265,0.924,-0.433,3.540,-0.916,-24.414
0.305,0.852,-0.360,7.080,4.089,-29.297
0.335,0.895,-0.289,10.071,8.179,-30.823
0.334,0.778,-0.296,4.700,16.174,-29.663
0.382,0.695,-0.327,-5.493,21.667,-21.729
0.382,0.744,-0.379,-13.977,22.949,-8.789
0.306,0.861,-0.455,-23.987,21.545,3.967
0.226,1.000,-0.500,-30.884,15.991,10.254
0.186,1.062,-0.493,-32.532,7.874,5.127
0.192,1.034,-0.464,-31.494,1.587,-6.592
0.219,0.962,-0.433,-29.541,-1.099,-17.639
0.242,0.907,-0.407,-26.855,-1.404,-23.437
0.301,0.937,-0.381,-24.292,0.610,-24.048
0.216,0.880,-0.387,-25.757,5.188,-21.912
0.211,0.922,-0.380,-25.452,5.859,-18.677
0.192,0.980,-0.402,-26.978,7.324,-16.235
0.158,1.026,-0.427,-32.837,8.057,-16.785
0.132,1.065,-0.441,-38.025,6.897,-20.142
0.115,1.081,-0.436,-41.687,4.333,-26.672
0.079,1.092,-0.433,-43.945,1.709,-34.790
0.096,1.138,-0.410,-44.922,0.244,-44.128
0.101,1.130,-0.398,-45.532,0.854,-54.688
0.120,1.103,-0.407,-44.922,4.639,-64.880
0.134,1.070,-0.429,-40.161,11.108,-73.914
0.148,1.037,-0.447,-33.142,19.958,-81.360
0.162,1.015,-0.466,-24.475,29.785,-87.585
0.160,0.990,-0.492,-15.259,39.368,-93.567
0.163,0.946,-0.530,-7.812,46.936,-99.731
0.192,0.891,-0.568,-2.197,51.147,-104.736
0.238,0.824,-0.607,3.784,51.941,-107.544
0.271,0.776,-0.620,10.559,50.415,-106.079
0.295,0.754,-0.600,17.334,48.401,-100.708
0.282,0.745,-0.580,23.071,48.035,-93.872
0.248,0.758,-0.538,27.649,49.011,-89.050
0.216,0.785,-0.490,29.114,51.514,-88.257
0.197,0.801,-0.461,26.978,55.725,-92.041
0.193,0.788,-0.465,21.912,60.486,-98.755
0.201,0.759,-0.483,16.052,64.148,-106.873
0.215,0.726,-0.499,10.986,66.101,-114.746
0.223,0.681,-0.509,7.507,67.383,-121.399
0.231,0.633,-0.514,5.615,68.420,-126.465
0.252,0.584,-0.508,5.249,69.336,-130.005
0.270,0.536,-0.498,5.920,70.679,-132.507
0.275,0.499,-0.505,4.944,73.608,-132.935
0.271,0.472,-0.539,1.343,78.613,-130.798
0.263,0.447,-0.596,-4.578,84.656,-127.930
0.253,0.436,-0.667,-11.230,89.294,-125.305
0.248,0.441,-0.742,-16.846,91.003,-124.451
0.240,0.442,-0.800,-20.630,89.233,-126.160
0.233,0.440,-0.828,-24.170,84.045,-130.493
0.231,0.434,-0.826,-27.893,76.416,-137.390
0.229,0.411,-0.825,-33.325,68.054,-146.423
0.239,0.347,-0.833,-39.795,60.181,-156.860
0.262,0.246,-0.846,-44.006,53.162,-166.382
0.281,0.146,-0.861,-46.021,48.157,-172.729
0.300,0.073,-0.879,-47.791,46.143,-173.889
0.322,0.030,-0.888,-47.974,46.265,-171.204
0.326,0.014,-0.884,-45.715,46.509,-166.809
0.321,0.020,-0.859,-41.443,45.715,-162.598
0.310,0.021,-0.832,-37.476,44.495,-159.363
0.295,0.013,-0.814,-36.011,43.762,-158.142
0.269,0.005,-0.791,-34.973,44.250,-159.241
0.243,-0.021,-0.768,-33.447,46.753,-163.940
0.233,-0.093,-0.781,-31.799,51.453,-170.776
0.234,-0.181,-0.820,-28.748,57.861,-176.758
0.240,-0.257,-0.875,-24.170,64.514,-179.504
0.249,-0.332,-0.952,-24.170,69.092,-178.650
0.271,-0.396,-1.041,-30.090,70.068,-173.645
0.308,-0.425,-1.126,-38.208,65.125,-164.978
0.346,-0.433,-1.168,-44.922,54.260,-154.724
0.365,-0.431,-1.166,-48.828,40.039,-143.494
0.377,-0.422,-1.134,-52.063,26.001,-132.812
0.379,-0.414,-1.083,-54.749,14.404,-123.535
0.376,-0.417,-1.022,-56.702,6.897,-116.089
0.383,-0.431,-0.981,-56.458,3.845,-110.962
0.389,-0.454,-0.969,-54.321,4.822,-107.666
0.387,-0.486,-0.983,-51.025,8.423,-103.882
0.389,-0.504,-1.018,-46.936,12.756,-99.426
0.404,-0.538,-1.071,-42.358,16.479,-94.299
0.439,-0.556,-1.107,-34.973,17.517,-88.196
0.444,-0.579,-1.118,-27.100,16.174,-81.360
0.453,-0.590,-1.100,-18.738,13.794,-73.730
0.463,-0.576,-1.057,-9.827,10.925,-64.819
0.463,-0.554,-1.011,-3.479,9.277,-56.458
0.458,-0.539,-0.981,-0.854,8.911,-49.072
0.456,-0.531,-0.958,-1.282,8.789,-42.786
0.460,-0.523,-0.954,-3.174,8.484,-37.476
0.468,-0.513,-0.967,-5.310,7.690,-32.959
0.475,-0.501,-0.977,-6.775,5.859,-28.198
0.481,-0.495,-0.975,-6.897,3.479,-23.926
0.489,-0.482,-0.959,-5.676,0.977,-19.958
0.499,-0.470,-0.943,-3.784,-0.671,-16.907
0.505,-0.464,-0.935,-2.136,-1.160,-13.916
0.517,-0.464,-0.937,0.183,-0.977,-10.254
0.529,-0.461,-0.935,2.991,-0.610,-6.287
0.529,-0.445,-0.924,5.615,-0.122,-1.709
0.515,-0.422,-0.897,6.897,0.427,3.967
0.501,-0.396,-0.882,5.859,1.038,8.972
0.498,-0.367,-0.898,2.319,2.136,12.756
0.500,-0.347,-0.926,-0.854,2.319,15.686
0.501,-0.323,-0.938,-2.319,1.038,17.639
0.495,-0.299,-0.930,-2.136,-0.916,19.287
0.483,-0.274,-0.919,-1.221,-2.014,20.630
0.473,-0.247,-0.911,-0.427,-2.258,21.484
0.464,-0.222,-0.914,0.366,-1.709,21.973
0.457,-0.199,-0.919,1.282,-1.160,21.667
0.454,-0.189,-0.924,2.747,-1.160,20.935
0.456,-0.176,-0.916,4.639,-1.404,20.447
0.451,-0.164,-0.910,6.104,-0.916,20.203
0.445,-0.147,-0.901,6.775,-0.549,19.714
0.441,-0.132,-0.891,6.653,-0.305,18.860
0.438,-0.121,-0.892,5.615,-0.244,17.578
0.440,-0.111,-0.898,3.540,-0.732,16.296
0.440,-0.099,-0.900,0.977,-2.075,15.015
0.439,-0.094,-0.899,-1.465,-3.906,13.855
0.437,-0.093,-0.894,-2.808,-5.920,12.329
0.436,-0.092,-0.883,-3.113,-7.385,11.230
0.440,-0.089,-0.869,-2.808,-8.240,9.766
0.446,-0.092,-0.856,-1.831,-7.935,8.484
0.447,-0.097,-0.848,-1.160,-6.531,7.446
0.452,-0.104,-0.846,-0.061,-4.761,6.531
0.455,-0.113,-0.844,0.732,-3.296,5.737
0.464,-0.121,-0.840,1.709,-2.563,5.615
0.474,-0.125,-0.834,2.319,-1.892,5.798
0.475,-0.123,-0.831,2.563,-1.404,6.592
0.472,-0.119,-0.832,2.075,-0.854,7.507
0.470,-0.114,-0.836,0.793,-0.549,8.179
0.469,-0.118,-0.848,-0.183,-0.793,8.057
0.467,-0.121,-0.854,-0.305,-1.160,7.812
0.468,-0.122,-0.864,-0.305,-1.526,7.202
0.469,-0.124,-0.879,-0.671,-1.587,7.080
0.466,-0.132,-0.892,-0.671,-1.587,7.263
0.466,-0.133,-0.896,0.427,-1.770,7.385
0.466,-0.132,-0.892,2.136,-1.770,7.324
0.467,-0.127,-0.884,3.784,-1.343,7.202
0.468,-0.122,-0.883,4.944,-0.732,6.897
0.465,-0.122,-0.878,5.249,-0.427,6.165
0.464,-0.124,-0.875,5.005,-0.305,5.615
0.465,-0.122,-0.871,4.700,-0.427,4.944
0.467,-0.127,-0.868,4.333,-0.427,4.272
0.470,-0.133,-0.866,3.662,-0.366,4.028
0.475,-0.132,-0.864,3.540,-0.244,3.479
0.477,-0.137,-0.862,3.479,0.061,2.991
0.477,-0.136,-0.862,3.662,0.061,2.625
0.476,-0.140,-0.866,3.601,0.549,2.808
0.481,-0.146,-0.865,3.296,0.488,3.113
0.486,-0.149,-0.862,2.869,0.061,3.418
0.484,-0.151,-0.867,2.258,0.122,4.089
0.482,-0.148,-0.874,1.465,0.427,5.188

0.423,0.526,-0.860,3.845,-10.254,-2.258
0.455,0.540,-0.721,12.756,-17.395,2.197
0.432,0.623,-0.641,20.996,-17.517,5.066
0.387,0.637,-0.577,18.616,-13.062,3.479
0.402,0.650,-0.530,12.817,-7.690,-1.099
0.408,0.648,-0.538,4.395,-2.686,-5.981
0.429,0.581,-0.611,-5.737,0.427,-9.888
0.448,0.528,-0.699,-11.780,0.549,-9.827
0.462,0.539,-0.738,-12.817,-1.160,-5.371
0.429,0.598,-0.680,-11.597,-3.601,0.488
0.382,0.690,-0.624,-12.756,-5.127,4.395
0.376,0.733,-0.618,-17.700,-5.493,3.174
0.381,0.723,-0.615,-21.057,-5.737,-2.197
0.384,0.708,-0.603,-20.386,-5.920,-6.653
0.385,0.703,-0.574,-17.212,-5.432,-9.033
0.405,0.752,-0.570,-15.381,-3.784,-9.521
0.335,0.724,-0.556,-19.714,-1.526,-8.179
0.351,0.784,-0.569,-21.179,-0.854,-5.432
0.344,0.833,-0.557,-23.254,-2.991,-4.211
0.308,0.871,-0.536,-27.100,-5.005,-4.883
0.305,0.915,-0.518,-31.128,-5.493,-6.470
0.271,0.944,-0.509,-35.095,-4.150,-10.437
0.233,0.952,-0.514,-38.086,-0.671,-16.296
0.207,0.962,-0.549,-37.659,3.967,-23.193
0.229,0.992,-0.556,-33.630,9.583,-30.823
0.234,1.012,-0.575,-28.320,16.296,-39.246
0.228,1.009,-0.606,-25.635,23.071,-47.119
0.219,1.002,-0.648,-22.461,28.564,-53.650
0.219,0.994,-0.686,-18.738,31.921,-58.716
0.230,0.982,-0.715,-14.221,32.471,-63.538
0.255,0.951,-0.730,-7.324,31.189,-67.871
0.271,0.923,-0.719,2.930,29.724,-70.190
0.279,0.903,-0.691,14.221,29.724,-70.313
0.284,0.885,-0.663,24.658,31.860,-69.702
0.268,0.886,-0.626,33.875,36.133,-68.176
0.245,0.912,-0.597,40.466,41.138,-67.444
0.215,0.930,-0.599,42.419,45.898,-68.542
0.185,0.941,-0.617,40.100,49.011,-71.350
0.162,0.949,-0.638,34.912,48.767,-76.233
0.146,0.936,-0.666,27.954,45.410,-83.252
0.149,0.895,-0.702,21.118,39.551,-91.309
0.167,0.839,-0.727,15.930,32.654,-98.389
0.189,0.783,-0.737,14.221,26.550,-103.149
0.200,0.736,-0.722,16.418,22.705,-105.713
0.198,0.709,-0.685,20.874,22.034,-107.239
0.199,0.709,-0.653,25.146,24.780,-108.582
0.205,0.700,-0.640,28.564,30.334,-110.596
0.203,0.681,-0.634,31.616,37.842,-113.953
0.203,0.670,-0.653,34.363,45.837,-118.042
0.208,0.651,-0.689,36.377,53.772,-121.948
0.204,0.603,-0.741,38.147,61.035,-125.488
0.197,0.560,-0.794,39.490,65.979,-127.380
0.195,0.534,-0.854,39.307,68.726,-127.563
0.203,0.511,-0.903,38.452,68.665,-126.282
0.202,0.492,-0.940,36.194,65.369,-125.488
0.206,0.471,-0.958,32.837,59.509,-125.793
0.217,0.451,-0.943,28.809,52.490,-127.319
0.219,0.439,-0.909,25.391,46.265,-129.700
0.232,0.432,-0.887,20.996,41.443,-133.362
0.253,0.418,-0.869,16.846,38.391,-136.902
0.269,0.391,-0.851,15.137,36.438,-140.137
0.287,0.352,-0.823,16.479,36.316,-142.639
0.296,0.332,-0.780,18.982,38.635,-143.066
0.296,0.323,-0.763,19.104,42.358,-142.761
0.287,0.304,-0.770,14.832,45.410,-143.433
0.270,0.285,-0.782,9.583,46.021,-145.203
0.250,0.248,-0.807,3.784,44.800,-148.010
0.235,0.212,-0.828,-2.014,42.725,-150.879
0.214,0.181,-0.845,-5.554,41.687,-153.381
0.188,0.159,-0.848,-5.310,41.443,-156.067
0.157,0.130,-0.863,-4.578,42.480,-158.325
0.142,0.100,-0.881,-3.113,45.471,-159.241
0.135,0.087,-0.890,0.610,49.561,-159.729
0.146,0.084,-0.878,5.066,53.711,-160.767
0.152,0.087,-0.852,8.179,57.373,-161.865
0.164,0.097,-0.836,8.972,60.181,-161.987
0.142,0.098,-0.826,4.822,62.134,-160.950
0.106,0.082,-0.862,-2.808,63.721,-161.011
0.074,0.074,-0.898,-10.437,62.256,-162.292
0.045,0.038,-0.917,-17.334,57.678,-166.504
0.027,-0.028,-0.915,-21.606,51.758,-172.485
0.027,-0.113,-0.890,-23.987,46.570,-178.528
0.035,-0.180,-0.851,-25.146,43.091,-183.472
0.042,-0.251,-0.801,-27.832,41.260,-187.378
0.052,-0.331,-0.770,-34.241,41.016,-189.514
0.074,-0.400,-0.776,-42.786,40.771,-189.453
0.078,-0.474,-0.789,-50.476,39.429,-187.195
0.050,-0.521,-0.783,-55.908,37.109,-182.190
0.015,-0.547,-0.797,-59.753,35.828,-175.110
-0.012,-0.599,-0.839,-62.866,36.560,-168.884
-0.026,-0.648,-0.881,-62.927,39.673,-165.588
-0.037,-0.701,-0.925,-59.387,43.701,-165.405
-0.034,-0.753,-0.970,-54.932,46.692,-166.260
-0.009,-0.836,-1.032,-50.720,47.485,-166.077
0.035,-0.928,-1.094,-45.837,44.983,-161.560
0.073,-0.980,-1.119,-38.147,40.588,-151.001
0.103,-0.985,-1.104,-29.846,35.889,-135.559
0.106,-0.965,-1.088,-24.170,32.227,-118.774
0.091,-0.940,-1.093,-22.583,28.931,-101.929
0.079,-0.921,-1.120,-23.865,25.574,-87.524
0.085,-0.884,-1.141,-24.658,21.118,-77.148
0.084,-0.874,-1.159,-23.682,15.076,-71.167
0.103,-0.867,-1.161,-18.921,8.484,-68.176
0.127,-0.873,-1.138,-11.414,2.686,-66.101
0.168,-0.903,-1.109,-4.456,-0.977,-62.561
0.213,-0.909,-1.079,2.686,-2.258,-56.030
0.232,-0.891,-1.021,10.315,-2.380,-47.607
0.242,-0.854,-0.966,15.503,-1.526,-38.574
0.253,-0.806,-0.941,16.052,-0.122,-29.846
0.263,-0.764,-0.935,12.695,0.610,-22.522
0.271,-0.725,-0.931,8.240,-0.366,-17.151
0.279,-0.689,-0.925,4.211,-3.113,-13.794
0.289,-0.656,-0.925,-0.427,-6.653,-11.414
0.300,-0.641,-0.928,-4.944,-9.521,-9.521
0.312,-0.643,-0.934,-6.409,-10.559,-7.080
0.325,-0.630,-0.922,-3.967,-10.376,-4.883
0.324,-0.616,-0.909,-0.122,-7.812,-2.625
0.329,-0.599,-0.903,4.150,-3.967,0.366
0.331,-0.575,-0.905,7.812,0.488,3.418
0.333,-0.549,-0.904,10.925,4.944,6.653
0.331,-0.521,-0.905,12.329,8.057,9.583
0.333,-0.495,-0.916,10.864,9.888,11.780
0.336,-0.471,-0.938,6.897,9.949,13.733
0.335,-0.452,-0.960,2.380,7.874,15.442
0.326,-0.427,-0.972,-2.136,4.395,17.090
0.318,-0.396,-0.979,-5.798,0.488,18.677
0.311,-0.375,-0.981,-8.667,-2.686,19.470
0.309,-0.361,-0.976,-10.071,-5.066,19.348
0.303,-0.339,-0.965,-9.338,-6.470,18.616
0.302,-0.317,-0.952,-7.507,-6.409,17.578
0.300,-0.302,-0.933,-5.920,-5.310,16.052
0.294,-0.290,-0.907,-4.028,-3.723,14.526
0.290,-0.272,-0.897,-3.174,-2.197,12.756
0.295,-0.257,-0.910,-4.272,-0.427,10.925
0.295,-0.259,-0.920,-5.432,0.061,9.460
0.298,-0.264,-0.922,-5.310,-0.183,8.057
0.307,-0.261,-0.923,-4.211,-0.854,7.141
0.317,-0.260,-0.924,-2.747,-1.587,6.714
0.317,-0.266,-0.922,-1.709,-2.197,6.470
0.310,-0.275,-0.928,-0.732,-2.441,7.019
0.305,-0.269,-0.927,0.122,-2.991,7.996
0.296,-0.256,-0.917,0.977,-3.601,8.545
0.288,-0.252,-0.908,0.488,-4.517,7.751
0.283,-0.253,-0.893,-0.488,-5.432,6.165
0.286,-0.257,-0.880,-1.648,-6.287,3.723
0.299,-0.265,-0.881,-2.502,-6.714,0.916
0.306,-0.283,-0.888,-2.258,-6.104,-1.648
0.314,-0.312,-0.892,-0.549,-5.066,-3.235
0.327,-0.334,-0.893,2.319,-3.662,-3.418

0.238,0.814,-0.727,-0.427,-23.071,0.793
0.305,0.801,-0.626,-2.014,-19.958,-7.324
0.301,0.770,-0.605,-2.014,-15.686,-15.503
0.272,0.723,-0.562,-3.662,-8.484,-21.057
0.295,0.692,-0.593,-4.639,-0.977,-24.414
0.336,0.595,-0.691,-5.432,5.371,-25.879
0.373,0.519,-0.727,-1.282,8.423,-22.278
0.390,0.511,-0.708,3.540,8.850,-12.573
0.333,0.574,-0.632,3.662,7.446,-1.465
0.251,0.680,-0.621,-2.319,6.104,7.202
0.228,0.750,-0.685,-13.245,4.272,8.972
0.236,0.745,-0.729,-19.592,-0.122,4.272
0.233,0.675,-0.714,-19.226,-5.432,-2.258
0.269,0.676,-0.673,-14.099,-7.507,-5.066
0.248,0.605,-0.639,-13.855,-5.920,-3.418
0.263,0.669,-0.637,-13.611,-6.348,2.014
0.234,0.757,-0.636,-15.503,-6.287,7.996
0.187,0.844,-0.640,-19.958,-7.507,10.803
0.156,0.904,-0.651,-24.658,-9.583,10.010
0.135,0.998,-0.630,-26.001,-11.658,6.226
0.028,1.061,-0.620,-26.062,-11.902,-0.244
0.076,1.096,-0.595,-27.039,-9.766,-9.033
0.122,1.108,-0.603,-19.653,-4.761,-20.325
0.129,1.084,-0.607,-7.690,3.540,-30.823
0.090,1.059,-0.621,6.165,14.526,-36.560
0.113,1.083,-0.598,23.071,26.245,-39.429
0.140,1.113,-0.569,37.048,37.109,-41.809
0.144,1.147,-0.559,37.964,45.837,-42.297
0.138,1.200,-0.575,32.898,50.476,-41.687
0.132,1.215,-0.615,25.269,50.537,-42.908
0.122,1.211,-0.644,19.653,46.753,-46.692
0.110,1.184,-0.636,18.188,41.321,-52.551
0.105,1.147,-0.599,19.531,36.682,-59.814
0.118,1.121,-0.569,19.653,34.546,-66.467
0.126,1.080,-0.552,20.081,35.217,-71.960
0.128,1.047,-0.548,22.095,37.842,-75.745
0.118,1.042,-0.533,26.123,42.053,-77.942
0.095,1.048,-0.512,30.029,46.875,-80.383
0.072,1.060,-0.507,31.189,51.514,-84.778
0.052,1.054,-0.515,30.029,55.115,-91.309
0.036,1.036,-0.518,28.870,57.007,-99.426
0.021,1.025,-0.501,28.320,57.800,-107.788
0.017,1.011,-0.481,26.917,58.899,-116.394
0.007,0.963,-0.473,23.315,60.425,-125.671
0.006,0.923,-0.471,20.264,62.988,-133.789
0.001,0.885,-0.469,19.043,66.467,-141.235
-0.004,0.841,-0.472,17.700,70.740,-148.743
-0.004,0.796,-0.494,15.137,75.073,-155.273
-0.008,0.752,-0.527,11.475,78.613,-160.767
-0.023,0.720,-0.566,7.385,80.933,-164.490
-0.036,0.700,-0.608,2.441,81.482,-167.847
-0.042,0.666,-0.647,-3.357,80.322,-171.814
-0.033,0.616,-0.687,-8.118,77.637,-177.307
-0.003,0.557,-0.718,-10.315,74.219,-183.289
0.029,0.486,-0.731,-10.254,71.167,-188.721
0.051,0.426,-0.722,-8.179,69.519,-192.383
0.082,0.383,-0.692,-6.348,69.885,-194.153
0.093,0.307,-0.712,-7.874,72.388,-192.993
0.094,0.273,-0.739,-10.437,75.134,-185.669
0.076,0.283,-0.762,-13.306,75.562,-176.819
0.057,0.316,-0.784,-17.578,72.937,-170.593
0.036,0.319,-0.813,-25.146,67.566,-168.335
0.016,0.293,-0.832,-33.020,60.059,-169.189
0.003,0.251,-0.828,-37.964,52.795,-172.852
0.009,0.194,-0.812,-41.992,47.729,-178.284
0.031,0.137,-0.811,-45.715,45.471,-184.509
0.057,0.071,-0.833,-47.241,45.898,-189.514
0.092,0.016,-0.851,-45.410,47.180,-191.895
0.112,-0.042,-0.860,-40.527,48.828,-191.223
0.119,-0.093,-0.843,-33.630,51.331,-187.988
0.117,-0.120,-0.815,-25.452,56.335,-182.495
0.101,-0.134,-0.802,-18.982,63.477,-176.025
0.084,-0.146,-0.832,-16.968,71.350,-170.105
0.066,-0.159,-0.876,-18.066,77.026,-163.940
0.046,-0.146,-0.899,-19.897,79.102,-157.471
0.013,-0.118,-0.893,-23.804,77.637,-152.344
-0.025,-0.105,-0.893,-31.067,73.120,-149.658
-0.057,-0.140,-0.915,-40.039,66.711,-149.902
-0.071,-0.209,-0.942,-45.593,59.143,-150.818
-0.053,-0.273,-0.933,-46.753,53.284,-149.780
-0.040,-0.322,-0.897,-45.105,50.293,-146.912
-0.036,-0.359,-0.854,-45.654,50.598,-142.761
-0.038,-0.392,-0.843,-49.438,53.040,-137.085
-0.045,-0.415,-0.858,-55.847,55.176,-131.165
-0.056,-0.417,-0.876,-62.561,54.810,-125.732
-0.072,-0.433,-0.917,-69.214,51.208,-120.972
-0.072,-0.505,-0.979,-74.585,46.265,-118.164
-0.050,-0.596,-1.034,-75.867,41.931,-117.065
-0.019,-0.675,-1.074,-71.350,38.879,-115.601
0.015,-0.753,-1.095,-61.829,37.231,-112.610
0.036,-0.799,-1.090,-50.049,37.109,-105.591
0.032,-0.799,-1.088,-40.161,38.696,-94.482
0.024,-0.785,-1.132,-35.034,40.466,-81.970
0.010,-0.778,-1.175,-33.630,39.734,-71.045
-0.009,-0.790,-1.242,-32.166,38.025,-63.965
-0.001,-0.790,-1.284,-26.978,33.569,-59.753
0.020,-0.790,-1.313,-19.836,27.893,-57.312
0.045,-0.797,-1.306,-11.414,22.217,-55.969
0.080,-0.810,-1.271,-3.357,17.517,-53.711
0.111,-0.804,-1.227,3.967,14.099,-49.805
0.135,-0.786,-1.191,9.399,12.207,-44.250
0.154,-0.767,-1.164,12.146,10.925,-37.964
0.169,-0.751,-1.141,13.489,8.972,-31.250
0.179,-0.730,-1.108,14.648,6.653,-24.841
0.186,-0.694,-1.067,16.235,4.395,-19.165
0.200,-0.656,-1.036,17.822,4.150,-14.893
0.213,-0.630,-1.027,18.921,5.310,-11.475
0.223,-0.611,-1.019,19.836,7.019,-8.179
0.231,-0.585,-1.018,20.386,8.484,-4.883
0.230,-0.558,-1.029,18.799,8.972,-1.465
0.220,-0.526,-1.043,16.235,8.545,2.380
0.217,-0.493,-1.056,13.855,7.385,5.798
0.216,-0.461,-1.060,12.512,5.798,8.118
0.213,-0.435,-1.051,11.841,4.272,9.705
0.212,-0.401,-1.045,11.536,3.601,10.498
0.208,-0.376,-1.044,10.315,3.113,10.864
0.201,-0.358,-1.036,8.545,2.319,10.742
0.202,-0.342,-1.030,6.470,1.465,10.864
0.206,-0.336,-1.034,4.395,0.732,10.925
0.210,-0.328,-1.035,2.991,0.183,11.536
0.207,-0.299,-1.024,2.930,-0.183,12.939
0.210,-0.271,-1.024,2.441,-0.488,14.343
0.214,-0.253,-1.027,1.770,-0.732,15.381
0.214,-0.227,-1.021,1.892,-1.038,16.174
0.211,-0.198,-1.005,2.686,-1.221,16.602
0.199,-0.172,-0.996,2.625,-0.977,16.296
0.192,-0.149,-0.999,1.404,-0.854,15.076
0.193,-0.138,-1.011,-0.916,-1.404,13.123
0.197,-0.137,-1.009,-1.831,-2.930,10.742
0.202,-0.138,-1.001,-2.380,-4.578,8.728
0.204,-0.133,-0.996,-4.089,-5.798,6.958
0.204,-0.135,-0.999,-5.920,-6.897,5.859
0.210,-0.151,-0.999,-6.592,-8.118,4.822
0.223,-0.173,-0.998,-5.859,-8.728,4.089
0.228,-0.181,-0.992,-4.150,-8.728,4.089
0.222,-0.171,-0.983,-2.441,-8.423,5.066
0.214,-0.162,-0.975,-1.648,-8.118,6.348
0.210,-0.153,-0.962,-0.366,-8.057,6.958
0.204,-0.140,-0.948,0.916,-8.179,5.859
0.196,-0.135,-0.938,1.648,-7.874,3.967
0.195,-0.141,-0.927,1.526,-7.507,1.770
0.196,-0.155,-0.916,1.404,-7.507,-0.488
0.212,-0.169,-0.914,0.610,-7.202,-2.380
0.225,-0.175,-0.910,0.732,-6.653,-3.052
0.229,-0.182,-0.913,0.977,-5.737,-2.747
0.236,-0.194,-0.919,1.038,-4.517,-1.465
0.241,-0.187,-0.921,1.404,-3.723,0.732
0.237,-0.175,-0.919,1.465,-3.174,2.502
0.231,-0.171,-0.926,0.610,-2.991,3.601

0.266,1.159,-0.455,-48.157,-12.024,27.832
0.205,1.158,-0.377,-44.434,-15.137,16.296
0.263,1.168,-0.334,-35.645,-14.465,-0.671
0.295,1.041,-0.324,-32.959,-5.066,-14.404
0.335,0.913,-0.373,-27.283,7.996,-21.545
0.396,0.783,-0.439,-14.587,20.752,-20.386
0.440,0.698,-0.513,-0.732,31.494,-9.399
0.410,0.788,-0.540,12.268,37.659,9.827
0.294,0.985,-0.538,19.958,39.246,28.381
0.178,1.177,-0.543,18.860,35.339,35.034
0.126,1.253,-0.543,10.864,25.940,27.771
0.142,1.197,-0.496,0.793,13.428,12.512
0.203,1.083,-0.413,-7.080,2.686,-1.648
0.277,0.992,-0.364,-13.367,-1.465,-7.080
0.287,0.995,-0.359,-19.409,1.099,-4.822
0.268,0.992,-0.386,-24.658,5.798,0.549
0.225,1.055,-0.395,-20.081,5.981,4.578
0.200,1.123,-0.365,-16.174,5.554,4.089
0.155,1.178,-0.326,-12.268,5.981,-1.770
0.073,1.230,-0.295,-11.292,8.057,-10.254
0.067,1.205,-0.291,-12.634,11.414,-20.813
0.136,1.225,-0.317,-12.024,16.113,-32.959
0.138,1.170,-0.357,-9.216,21.973,-44.556
0.134,1.154,-0.385,-3.479,26.611,-52.063
0.131,1.172,-0.388,5.920,29.358,-55.847
0.156,1.193,-0.324,17.822,31.067,-60.852
0.174,1.167,-0.273,21.118,33.997,-66.223
0.190,1.133,-0.256,17.639,38.940,-69.092
0.204,1.104,-0.261,14.160,45.105,-69.702
0.212,1.081,-0.252,13.306,51.758,-70.007
0.217,1.075,-0.232,15.015,57.922,-70.557
0.230,1.070,-0.222,14.832,63.721,-71.350
0.244,1.039,-0.237,11.169,68.298,-72.021
0.248,1.012,-0.258,7.690,71.167,-70.923
0.242,1.010,-0.278,6.348,72.327,-69.092
0.227,1.010,-0.295,5.066,71.899,-67.566
0.203,1.010,-0.298,3.845,70.557,-67.017
0.177,1.008,-0.287,2.319,68.848,-68.237
0.147,1.005,-0.267,-0.427,68.115,-71.533
0.124,0.992,-0.248,-4.395,69.153,-75.928
0.108,0.988,-0.260,-11.230,71.472,-81.299
0.098,0.974,-0.318,-19.653,74.829,-87.036
0.088,0.939,-0.388,-25.330,77.881,-92.896
0.074,0.901,-0.435,-25.879,80.322,-99.854
0.071,0.877,-0.465,-23.132,82.458,-107.117
0.071,0.850,-0.473,-19.470,84.473,-114.441
0.078,0.813,-0.477,-17.151,86.426,-122.253
0.097,0.753,-0.487,-15.808,88.257,-129.517
0.112,0.687,-0.489,-13.428,90.393,-135.742
0.137,0.641,-0.482,-11.169,92.834,-140.015
0.155,0.603,-0.475,-11.169,95.398,-142.700
0.154,0.555,-0.484,-13.977,98.206,-144.470
0.155,0.509,-0.517,-18.005,100.525,-145.020
0.153,0.477,-0.547,-21.362,101.563,-144.470
0.150,0.467,-0.580,-25.269,101.746,-143.127
0.141,0.452,-0.623,-31.067,100.647,-141.785
0.155,0.448,-0.651,-37.415,97.839,-141.663
0.154,0.408,-0.681,-42.297,94.666,-143.127
0.158,0.380,-0.689,-44.128,90.454,-144.287
0.155,0.356,-0.693,-44.312,88.196,-144.653
0.133,0.350,-0.682,-40.955,88.196,-145.142
0.111,0.366,-0.659,-36.987,90.881,-144.409
0.085,0.376,-0.646,-33.813,95.642,-144.470
0.066,0.373,-0.651,-32.227,101.624,-147.278
0.043,0.353,-0.670,-31.433,108.276,-152.466
0.021,0.329,-0.711,-30.273,115.234,-158.813
0.016,0.293,-0.763,-28.625,120.972,-165.466
0.007,0.233,-0.812,-24.780,126.648,-171.143
-0.001,0.178,-0.848,-18.127,132.568,-175.476
-0.024,0.121,-0.869,-10.742,138.977,-177.734
-0.057,0.080,-0.852,-3.967,145.020,-178.528
-0.086,0.058,-0.823,-0.854,149.170,-178.223
-0.101,0.027,-0.825,-4.944,151.672,-177.734
-0.118,-0.043,-0.871,-15.869,151.978,-176.453
-0.130,-0.142,-0.927,-29.724,147.888,-174.194
-0.125,-0.249,-0.974,-44.312,138.306,-170.166
-0.111,-0.372,-1.029,-59.814,125.000,-163.940
-0.089,-0.474,-1.073,-73.608,110.352,-153.809
-0.070,-0.527,-1.091,-83.679,96.497,-139.954
-0.067,-0.556,-1.114,-93.201,84.595,-124.939
-0.082,-0.572,-1.143,-102.966,73.975,-110.779
-0.102,-0.567,-1.189,-112.366,63.354,-98.938
-0.118,-0.574,-1.250,-118.347,52.856,-90.332
-0.132,-0.600,-1.315,-118.896,43.030,-85.938
-0.127,-0.638,-1.378,-112.488,36.255,-83.557
-0.100,-0.693,-1.425,-100.159,32.043,-81.665
-0.061,-0.742,-1.452,-83.496,30.212,-79.956
-0.027,-0.764,-1.460,-64.148,29.846,-76.477
-0.008,-0.767,-1.458,-45.837,29.602,-70.984
0.006,-0.755,-1.453,-29.114,29.236,-64.148
0.023,-0.737,-1.438,-15.686,27.832,-56.946
0.033,-0.699,-1.404,-4.211,25.574,-50.537
0.041,-0.655,-1.357,3.906,22.217,-45.593
0.053,-0.615,-1.306,8.972,17.944,-42.358
0.079,-0.593,-1.261,11.292,13.428,-40.283
0.104,-0.579,-1.223,11.963,8.972,-38.574
0.132,-0.569,-1.187,11.414,4.639,-36.133
0.158,-0.558,-1.144,9.949,0.671,-32.532
0.185,-0.533,-1.102,8.057,-2.258,-27.893
0.213,-0.507,-1.075,6.592,-3.540,-22.461
0.235,-0.483,-1.062,4.150,-3.967,-17.273
0.248,-0.457,-1.056,1.892,-4.089,-12.024
0.258,-0.431,-1.058,0.000,-4.272,-7.141
0.257,-0.404,-1.063,-1.404,-3.967,-2.380
0.248,-0.383,-1.068,-0.977,-3.540,2.502
0.241,-0.352,-1.075,-0.305,-2.563,6.775
0.230,-0.314,-1.078,1.587,-0.793,10.132
0.217,-0.270,-1.078,3.418,0.916,12.817
0.207,-0.231,-1.078,4.761,2.197,14.526
0.199,-0.203,-1.079,5.493,3.174,15.320
0.191,-0.177,-1.076,5.981,2.869,15.320
0.188,-0.147,-1.064,6.042,1.587,14.954
0.183,-0.120,-1.044,5.676,0.610,14.465
0.180,-0.100,-1.028,4.272,-0.854,13.550
0.181,-0.087,-1.021,1.648,-2.197,12.573
0.178,-0.084,-1.013,-1.160,-3.540,11.047
0.181,-0.081,-1.005,-3.174,-4.333,9.094
0.185,-0.084,-0.998,-4.333,-4.272,6.897
0.189,-0.092,-0.999,-5.798,-3.967,4.639
0.201,-0.103,-1.015,-7.263,-3.540,3.540
0.216,-0.110,-1.029,-7.996,-3.906,3.296
0.219,-0.110,-1.027,-7.446,-5.005,4.028
0.214,-0.106,-1.014,-6.714,-6.348,4.883
0.212,-0.100,-1.002,-6.470,-7.263,5.371
0.213,-0.095,-0.992,-6.409,-7.812,5.371
0.214,-0.094,-0.972,-5.554,-7.996,4.456
0.217,-0.092,-0.959,-4.822,-7.446,3.601
0.220,-0.088,-0.962,-4.761,-6.592,3.052
0.220,-0.086,-0.972,-4.578,-5.554,2.991
0.212,-0.085,-0.973,-3.967,-5.188,2.686
0.210,-0.096,-0.978,-3.296,-5.127,2.136
0.220,-0.103,-0.984,-2.441,-5.432,1.465
0.223,-0.104,-0.978,-1.038,-5.493,1.160
0.220,-0.103,-0.966,1.038,-5.371,1.953
0.217,-0.097,-0.958,2.441,-4.944,2.441
0.212,-0.090,-0.959,2.808,-4.150,2.563
0.203,-0.094,-0.965,2.930,-3.723,2.747
0.201,-0.094,-0.969,3.296,-3.784,2.502
0.203,-0.095,-0.961,4.517,-3.540,2.014
0.201,-0.094,-0.947,5.981,-3.357,1.465
0.202,-0.089,-0.944,5.981,-2.747,1.038
0.211,-0.087,-0.949,4.822,-1.892,0.732
0.220,-0.096,-0.957,4.150,-1.831,0.244
0.230,-0.109,-0.953,4.395,-2.197,-0.549
0.242,-0.117,-0.937,5.249,-2.502,-1.343
0.251,-0.119,-0.930,5.249,-1.892,-1.038
0.255,-0.123,-0.943,3.357,-0.854,0.061
0.255,-0.122,-0.967,0.916,-0.488,2.136
0.249,-0.119,-0.986,-0.061,-0.977,4.028

0.241,1.257,-0.438,-9.277,-6.348,16.663
0.177,1.237,-0.389,-7.874,-8.118,19.226
0.290,1.251,-0.244,-9.216,-7.568,4.517
0.300,1.158,-0.223,-15.869,-1.953,-7.446
0.324,1.036,-0.278,-23.743,6.470,-15.503
0.390,0.916,-0.401,-24.048,14.282,-17.822
0.431,0.805,-0.524,-17.090,18.860,-12.512
0.428,0.828,-0.529,-1.892,20.020,-0.549
0.360,0.916,-0.456,12.817,20.508,12.634
0.270,1.020,-0.420,17.578,22.278,20.935
0.217,1.126,-0.462,11.475,22.034,22.339
0.215,1.162,-0.531,-0.061,16.052,16.418
0.243,1.105,-0.566,-10.498,5.188,6.775
0.329,1.055,-0.501,-15.686,-6.714,-1.282
0.300,0.933,-0.464,-20.325,-15.137,-3.723
0.338,0.912,-0.434,-23.315,-16.663,-0.610
0.346,0.956,-0.403,-22.888,-16.968,5.432
0.309,0.993,-0.390,-23.560,-14.465,9.277
0.273,1.029,-0.381,-24.719,-11.963,10.376
0.174,1.044,-0.381,-26.001,-9.888,8.728
0.187,1.094,-0.374,-25.269,-7.935,3.967
0.187,1.126,-0.370,-19.348,-6.714,-3.723
0.161,1.133,-0.335,-12.878,-5.859,-11.230
0.121,1.199,-0.312,-7.263,-5.310,-17.273
0.146,1.185,-0.260,-3.113,-4.089,-23.376
0.170,1.221,-0.234,-2.563,-0.793,-29.175
0.174,1.192,-0.232,-2.441,5.432,-34.180
0.181,1.150,-0.239,1.099,14.221,-37.781
0.192,1.134,-0.233,9.766,23.987,-39.734
0.192,1.148,-0.208,20.081,33.752,-41.504
0.187,1.167,-0.186,28.198,42.480,-43.579
0.177,1.203,-0.164,31.372,48.767,-46.509
0.156,1.221,-0.142,30.396,52.246,-51.086
0.145,1.211,-0.133,24.841,53.833,-58.167
0.149,1.179,-0.145,15.869,54.260,-66.406
0.159,1.132,-0.155,7.935,54.199,-74.280
0.166,1.087,-0.158,3.052,54.871,-80.750
0.173,1.056,-0.161,-0.061,57.251,-85.571
0.178,1.022,-0.179,-1.526,61.523,-89.111
0.169,0.993,-0.196,-0.488,67.444,-91.431
0.149,0.975,-0.213,1.709,74.646,-93.567
0.133,0.959,-0.242,3.235,81.909,-95.886
0.123,0.950,-0.274,3.967,88.257,-99.182
0.111,0.942,-0.304,3.784,92.712,-103.699
0.108,0.926,-0.331,1.465,94.788,-109.314
0.110,0.894,-0.351,-3.052,94.788,-116.028
0.114,0.841,-0.372,-8.545,93.750,-123.230
0.126,0.771,-0.401,-13.794,92.712,-129.333
0.149,0.714,-0.427,-18.494,91.675,-134.033
0.167,0.661,-0.450,-22.400,91.309,-136.963
0.183,0.613,-0.479,-25.513,91.187,-138.367
0.206,0.563,-0.516,-27.039,91.370,-138.855
0.218,0.534,-0.537,-24.658,92.773,-137.695
0.221,0.520,-0.559,-20.569,95.886,-135.498
0.225,0.494,-0.588,-16.724,100.220,-133.667
0.225,0.454,-0.607,-12.024,104.858,-132.935
0.223,0.439,-0.614,-7.141,109.497,-131.897
0.225,0.438,-0.626,-5.249,113.159,-130.188
0.230,0.438,-0.647,-6.104,114.502,-128.174
0.218,0.397,-0.690,-6.409,113.770,-126.099
0.212,0.379,-0.668,-3.052,111.450,-123.291
0.201,0.370,-0.637,0.000,109.741,-119.690
0.188,0.357,-0.627,-0.671,111.084,-117.310
0.172,0.342,-0.644,-5.371,113.403,-116.882
0.150,0.334,-0.670,-11.963,114.807,-117.920
0.128,0.313,-0.700,-18.372,114.624,-119.385
0.113,0.280,-0.732,-25.024,113.586,-121.521
0.108,0.242,-0.772,-30.457,112.427,-123.596
0.094,0.207,-0.811,-34.424,110.413,-124.756
0.077,0.195,-0.834,-39.063,107.605,-125.427
0.054,0.181,-0.842,-44.373,103.821,-125.732
0.024,0.155,-0.841,-49.927,100.647,-127.502
-0.006,0.125,-0.843,-55.969,98.633,-130.005
-0.031,0.087,-0.857,-62.317,97.961,-132.690
-0.054,0.053,-0.866,-67.505,97.961,-135.803
-0.071,0.011,-0.881,-71.289,98.999,-138.794
-0.077,-0.049,-0.911,-72.632,100.891,-141.235
-0.082,-0.129,-0.949,-71.289,103.088,-143.188
-0.086,-0.224,-1.003,-68.420,105.225,-143.738
-0.085,-0.296,-1.056,-65.186,106.812,-141.479
-0.086,-0.343,-1.120,-63.049,107.605,-136.719
-0.080,-0.406,-1.208,-64.087,106.689,-130.432
-0.059,-0.461,-1.304,-66.040,102.112,-123.352
-0.040,-0.495,-1.376,-66.833,93.079,-116.211
-0.018,-0.516,-1.421,-65.796,80.750,-109.375
0.005,-0.548,-1.451,-64.087,67.200,-102.783
0.034,-0.582,-1.457,-61.279,54.077,-96.985
0.068,-0.609,-1.454,-56.030,43.579,-91.248
0.120,-0.637,-1.445,-48.889,36.194,-86.060
0.154,-0.672,-1.431,-40.344,31.677,-81.055
0.183,-0.697,-1.410,-30.396,28.748,-75.256
0.215,-0.698,-1.385,-20.325,26.917,-67.932
0.248,-0.686,-1.354,-10.498,25.269,-59.937
0.273,-0.669,-1.329,-1.709,23.621,-51.208
0.281,-0.637,-1.290,5.432,20.935,-41.748
0.276,-0.582,-1.242,9.888,17.578,-32.288
0.267,-0.520,-1.197,10.559,13.672,-23.987
0.262,-0.464,-1.160,8.728,9.277,-17.883
0.263,-0.418,-1.125,6.409,4.761,-14.343
0.266,-0.379,-1.083,4.089,0.610,-12.085
0.265,-0.358,-1.038,1.221,-2.258,-10.620
0.270,-0.339,-1.011,-2.136,-3.235,-8.911
0.278,-0.324,-1.007,-5.615,-2.319,-6.775
0.284,-0.314,-1.024,-8.057,-0.305,-4.578
0.285,-0.291,-1.034,-7.324,1.770,-1.282
0.282,-0.257,-1.031,-4.272,3.784,2.502
0.273,-0.229,-1.029,-2.075,5.981,5.371
0.269,-0.211,-1.042,-1.038,7.812,7.324
0.270,-0.194,-1.058,-0.916,9.033,8.606
0.265,-0.175,-1.064,-0.977,8.545,10.071
0.255,-0.159,-1.056,-1.526,7.263,12.024
0.239,-0.136,-1.047,-3.601,5.493,13.428
0.227,-0.115,-1.055,-7.080,3.906,13.611
0.228,-0.100,-1.072,-10.010,2.258,13.062
0.236,-0.098,-1.076,-10.620,0.671,11.719
0.241,-0.095,-1.064,-9.583,-0.244,10.376
0.248,-0.086,-1.054,-7.385,-0.671,10.010
0.251,-0.074,-1.051,-5.981,-0.427,10.132
0.247,-0.058,-1.050,-4.700,-0.671,10.559
0.242,-0.037,-1.043,-3.906,-1.953,10.376
0.244,-0.024,-1.030,-3.113,-3.418,9.460
0.254,-0.031,-1.009,-2.625,-4.395,7.751
0.263,-0.027,-0.990,-2.808,-5.005,6.775
0.274,-0.021,-0.990,-3.845,-4.517,6.897
0.279,-0.022,-1.005,-5.310,-3.845,7.568
0.278,-0.019,-1.011,-5.310,-4.211,7.935
0.271,-0.004,-1.001,-4.944,-4.639,8.179
0.265,0.002,-1.000,-5.920,-5.371,7.935
0.260,0.006,-1.005,-6.775,-6.104,7.874
0.254,0.008,-1.010,-6.958,-6.958,7.080
0.250,0.007,-1.012,-5.310,-7.385,5.798
0.259,-0.002,-1.003,-3.052,-7.751,4.028
0.263,-0.008,-0.990,-0.183,-7.568,2.625
0.265,-0.008,-0.978,2.075,-6.592,2.380
0.263,-0.007,-0.974,3.601,-5.615,1.953
0.260,-0.009,-0.970,4.333,-4.944,1.892
0.254,-0.008,-0.949,5.676,-4.700,0.977
0.253,-0.002,-0.925,5.798,-4.395,0.122
0.262,-0.002,-0.922,3.845,-3.906,-1.587
0.274,-0.014,-0.929,2.075,-3.540,-2.869
0.280,-0.032,-0.927,1.587,-3.479,-3.540
0.281,-0.042,-0.921,2.441,-3.357,-3.662
0.290,-0.053,-0.919,2.991,-2.380,-3.357
0.295,-0.068,-0.923,3.540,-1.587,-2.563
0.305,-0.070,-0.920,4.639,-1.099,-1.282
0.309,-0.075,-0.916,5.432,-0.977,0.916
0.308,-0.078,-0.913,5.005,-0.916,3.601
0.305,-0.071,-0.914,3.967,-0.549,6.348
0.299,-0.066,-0.920,2.563,-0.366,7.690

0.496,0.950,-0.503,-7.629,-1.953,-2.441
0.543,0.851,-0.445,-1.831,-2.563,-5.371
0.545,0.836,-0.434,6.653,-2.319,-4.944
0.530,0.777,-0.433,6.897,-1.221,1.099
0.512,0.804,-0.376,9.033,0.000,8.911
0.451,0.905,-0.290,11.169,2.686,13.367
0.425,0.942,-0.308,4.883,7.935,13.184
0.426,0.876,-0.365,-4.028,12.207,9.399
0.428,0.836,-0.502,-11.230,13.550,9.033
0.417,0.861,-0.637,-15.259,9.766,14.282
0.385,0.922,-0.625,-10.925,0.244,20.081
0.360,0.965,-0.500,-2.869,-9.033,20.813
0.359,0.962,-0.387,2.136,-12.085,18.188
0.364,0.921,-0.344,2.808,-9.521,15.808
0.380,0.919,-0.340,2.319,-5.859,15.686
0.371,0.957,-0.324,-1.465,-4.028,17.822
0.359,0.950,-0.334,-6.042,-2.563,20.020
0.335,1.009,-0.315,-8.240,-4.883,21.729
0.299,1.068,-0.296,-14.587,-7.690,22.217
0.274,1.114,-0.290,-21.851,-9.949,19.531
0.230,1.141,-0.278,-28.687,-11.108,13.916
0.193,1.158,-0.286,-31.067,-10.681,6.775
0.216,1.210,-0.289,-29.114,-9.949,-1.038
0.237,1.160,-0.267,-21.851,-7.935,-8.118
0.247,1.177,-0.244,-11.902,-2.380,-13.367
0.245,1.171,-0.218,0.061,8.118,-15.747
0.236,1.189,-0.204,13.672,22.156,-16.602
0.216,1.232,-0.211,25.818,36.438,-16.846
0.184,1.282,-0.227,34.241,48.035,-18.372
0.151,1.312,-0.235,38.879,54.993,-22.949
0.133,1.330,-0.247,38.513,57.190,-30.457
0.123,1.304,-0.250,33.875,54.810,-40.833
0.122,1.260,-0.243,26.978,50.110,-51.636
0.132,1.201,-0.234,19.409,45.166,-61.279
0.142,1.148,-0.224,11.597,41.748,-69.702
0.152,1.097,-0.210,6.714,41.077,-76.355
0.162,1.047,-0.191,4.333,43.457,-81.543
0.166,1.010,-0.179,5.371,49.561,-85.571
0.166,0.975,-0.189,9.033,59.692,-88.867
0.161,0.946,-0.202,15.991,72.144,-91.675
0.145,0.939,-0.212,24.292,85.144,-94.727
0.121,0.930,-0.229,30.029,97.473,-98.511
0.099,0.926,-0.257,31.067,107.361,-103.516
0.082,0.905,-0.307,26.855,113.525,-109.741
0.077,0.863,-0.367,19.165,115.540,-116.760
0.086,0.816,-0.421,10.498,113.403,-123.352
0.113,0.750,-0.470,2.747,108.643,-129.089
0.151,0.677,-0.501,-2.991,103.027,-133.484
0.186,0.615,-0.507,-5.310,97.839,-136.169
0.208,0.577,-0.494,-6.409,94.482,-136.658
0.216,0.542,-0.488,-8.301,93.262,-135.498
0.208,0.516,-0.497,-11.536,93.262,-133.850
0.205,0.497,-0.520,-15.198,93.628,-132.263
0.209,0.492,-0.552,-18.555,93.567,-131.165
0.211,0.490,-0.571,-19.653,92.407,-131.226
0.215,0.485,-0.564,-18.555,91.003,-132.568
0.223,0.465,-0.544,-15.747,90.759,-135.925
0.255,0.418,-0.554,-14.343,93.567,-140.869
0.277,0.363,-0.593,-10.559,97.534,-145.630
0.295,0.313,-0.591,-5.981,99.060,-148.560
0.295,0.245,-0.596,-4.089,102.051,-150.879
0.282,0.201,-0.589,-1.770,105.469,-150.513
0.250,0.181,-0.589,-2.075,108.887,-147.034
0.198,0.178,-0.618,-6.348,113.403,-139.832
0.144,0.203,-0.667,-12.207,118.713,-131.287
0.085,0.243,-0.717,-16.785,124.146,-125.427
0.033,0.277,-0.764,-23.071,127.441,-125.244
-0.002,0.271,-0.807,-30.884,127.319,-130.920
-0.019,0.223,-0.833,-38.757,124.023,-141.113
-0.016,0.131,-0.856,-44.922,119.812,-152.893
0.011,-0.005,-0.891,-49.438,116.516,-162.598
0.058,-0.130,-0.910,-51.880,114.380,-167.053
0.084,-0.229,-0.913,-52.612,113.647,-165.466
0.082,-0.311,-0.934,-54.260,113.647,-158.813
0.077,-0.362,-0.984,-58.716,113.831,-148.010
0.066,-0.396,-1.064,-65.186,113.098,-136.169
0.053,-0.422,-1.175,-72.205,110.535,-126.770
0.058,-0.473,-1.304,-76.965,105.225,-120.667
0.088,-0.535,-1.418,-77.332,96.191,-116.394
0.123,-0.574,-1.472,-72.266,85.327,-111.572
0.154,-0.586,-1.483,-64.636,74.158,-105.469
0.189,-0.617,-1.488,-57.922,63.599,-98.938
0.225,-0.650,-1.487,-51.697,54.077,-92.163
0.248,-0.655,-1.481,-46.387,45.715,-84.167
0.264,-0.648,-1.480,-42.297,38.696,-75.378
0.275,-0.636,-1.480,-38.147,32.166,-66.895
0.283,-0.626,-1.467,-31.616,25.757,-59.692
0.303,-0.623,-1.433,-22.583,20.874,-54.077
0.326,-0.618,-1.393,-12.756,17.883,-49.194
0.351,-0.600,-1.353,-2.747,16.541,-43.945
0.374,-0.576,-1.308,6.958,16.174,-37.720
0.388,-0.541,-1.250,16.357,15.869,-31.372
0.393,-0.500,-1.185,24.658,15.930,-25.024
0.398,-0.451,-1.130,29.785,16.296,-19.348
0.401,-0.401,-1.091,31.494,16.296,-14.587
0.397,-0.354,-1.062,30.212,15.259,-9.888
0.384,-0.301,-1.045,26.917,13.123,-5.371
0.369,-0.256,-1.044,20.691,10.437,-1.587
0.359,-0.213,-1.046,14.099,6.897,1.709
0.349,-0.187,-1.042,8.850,3.113,3.601
0.342,-0.169,-1.022,5.371,-0.427,4.211
0.343,-0.144,-1.005,2.258,-2.502,5.127
0.341,-0.125,-1.002,-0.122,-2.869,5.920
0.334,-0.117,-1.012,-2.197,-2.625,6.165
0.325,-0.108,-1.016,-2.686,-2.563,6.104
0.315,-0.099,-1.016,-1.770,-2.502,5.676
0.311,-0.083,-1.002,-0.854,-1.892,4.944
0.319,-0.064,-0.993,-0.610,-1.648,3.723
0.331,-0.062,-0.994,-1.221,-1.587,2.136
0.345,-0.065,-0.993,-0.916,-1.587,0.793
0.356,-0.066,-0.993,-0.610,-1.892,0.183
0.356,-0.061,-0.987,0.366,-1.953,0.244
0.349,-0.049,-0.971,0.610,-2.625,0.977
0.343,-0.035,-0.938,0.122,-3.357,1.770
0.339,-0.018,-0.924,-1.953,-3.662,1.770
0.341,-0.010,-0.945,-5.493,-3.113,1.892
0.345,-0.003,-0.968,-8.728,-3.235,1.526
0.344,0.001,-0.972,-8.850,-4.333,0.427
0.346,-0.001,-0.958,-7.568,-5.493,-1.099
0.353,-0.013,-0.944,-6.226,-5.737,-2.869
0.364,-0.025,-0.940,-5.066,-5.188,-3.662
0.372,-0.034,-0.945,-4.150,-4.578,-3.235
0.378,-0.040,-0.952,-2.747,-4.333,-1.587
0.380,-0.035,-0.944,-1.343,-4.883,0.488
0.372,-0.025,-0.930,-0.427,-5.310,2.808
0.364,-0.016,-0.922,-0.427,-5.249,4.517
0.363,-0.015,-0.924,-0.671,-4.944,5.371
0.361,-0.018,-0.931,-0.610,-4.639,5.859
0.359,-0.012,-0.926,-0.244,-4.761,6.226
0.360,-0.003,-0.918,-0.549,-4.944,6.714
0.361,-0.004,-0.917,-0.732,-4.822,6.653
0.364,-0.003,-0.918,-0.244,-4.761,6.531
0.368,-0.001,-0.918,0.427,-4.150,6.348
0.373,-0.001,-0.915,1.892,-3.296,6.287
0.376,-0.009,-0.908,2.930,-2.441,5.615
0.378,-0.016,-0.909,2.747,-1.648,5.188
0.381,-0.015,-0.914,1.953,-0.977,5.676
0.382,-0.014,-0.925,0.916,-0.732,6.592
0.384,-0.010,-0.932,0.122,-0.916,7.324
0.383,-0.005,-0.935,-0.427,-1.160,7.751
0.381,-0.001,-0.936,-1.221,-1.587,7.690
0.378,-0.001,-0.938,-1.709,-1.953,7.507
0.372,0.004,-0.938,-1.343,-2.136,7.446
0.371,0.008,-0.940,-1.282,-2.014,7.019
0.369,0.007,-0.947,-0.916,-1.770,6.775
0.370,0.006,-0.956,-0.061,-1.160,6.348
0.366,0.004,-0.957,1.160,-0.671,5.676
0.365,-0.003,-0.956,2.197,-0.488,5.005
0.367,-0.017,-0.959,2.625,-0.427,4.395

0.297,1.180,-0.291,-12.329,-0.793,18.860
0.354,1.126,-0.243,-13.367,-1.953,7.568
0.379,1.083,-0.267,-13.123,0.061,-1.953
0.380,0.960,-0.288,-16.968,4.028,-6.104
0.412,0.924,-0.310,-13.733,7.874,-5.981
0.424,0.898,-0.328,-7.507,12.146,-4.089
0.405,0.876,-0.337,-0.732,15.564,-0.183
0.398,0.852,-0.349,4.456,18.005,5.798
0.366,0.906,-0.375,8.301,19.348,13.672
0.311,1.005,-0.400,10.315,19.165,20.386
0.274,1.061,-0.396,10.315,15.686,20.752
0.286,1.103,-0.324,6.531,9.155,15.869
0.226,1.049,-0.343,-3.540,2.319,9.888
0.260,1.020,-0.355,-18.433,-2.319,6.348
0.293,1.026,-0.346,-26.306,-7.874,5.310
0.270,1.033,-0.315,-31.067,-10.437,5.737
0.235,1.061,-0.299,-34.546,-10.193,6.409
0.186,1.093,-0.286,-38.391,-8.362,5.310
0.165,1.143,-0.314,-41.504,-5.127,1.221
0.157,1.153,-0.343,-39.612,-3.113,-6.165
0.153,1.171,-0.339,-32.837,-2.686,-14.832
0.161,1.211,-0.312,-24.414,-2.380,-22.705
0.179,1.226,-0.262,-15.686,0.122,-31.128
0.170,1.239,-0.240,-9.155,6.470,-39.612
0.162,1.233,-0.243,-3.662,15.686,-47.607
0.170,1.216,-0.261,3.662,25.940,-55.725
0.201,1.196,-0.267,13.672,35.217,-63.721
0.210,1.167,-0.256,21.179,42.908,-68.481
0.212,1.165,-0.238,26.123,48.645,-70.251
0.212,1.171,-0.227,27.771,52.551,-70.679
0.212,1.167,-0.224,25.391,54.993,-72.205
0.221,1.145,-0.232,21.484,55.847,-75.073
0.229,1.114,-0.243,17.395,55.115,-78.125
0.235,1.091,-0.245,14.587,53.345,-80.261
0.237,1.056,-0.233,13.123,51.880,-82.153
0.238,1.026,-0.208,13.428,52.612,-83.923
0.234,1.003,-0.187,15.198,56.396,-85.754
0.224,0.987,-0.184,15.869,62.683,-88.318
0.211,0.968,-0.201,15.198,69.580,-91.370
0.197,0.950,-0.219,13.489,75.073,-95.093
0.180,0.930,-0.237,10.620,78.613,-99.487
0.166,0.906,-0.257,5.615,80.383,-104.004
0.158,0.881,-0.276,0.183,81.055,-108.704
0.159,0.847,-0.293,-4.761,81.970,-113.953
0.168,0.799,-0.316,-8.667,83.069,-119.446
0.180,0.748,-0.338,-11.475,84.961,-124.756
0.188,0.711,-0.354,-12.390,87.219,-128.906
0.194,0.680,-0.372,-13.000,90.271,-132.141
0.194,0.641,-0.404,-14.160,93.994,-135.498
0.200,0.600,-0.452,-15.991,97.534,-138.794
0.205,0.553,-0.495,-16.724,100.586,-141.785
0.213,0.513,-0.539,-16.663,103.455,-144.226
0.224,0.484,-0.591,-17.517,105.957,-145.325
0.258,0.424,-0.667,-19.043,107.361,-145.630
0.279,0.375,-0.683,-17.578,106.262,-144.836
0.286,0.374,-0.682,-15.747,102.844,-139.221
0.268,0.398,-0.660,-15.381,99.731,-132.935
0.251,0.425,-0.647,-18.799,97.168,-128.357
0.233,0.430,-0.671,-25.208,95.703,-126.709
0.214,0.403,-0.717,-31.799,94.116,-129.639
0.209,0.361,-0.760,-36.987,92.773,-135.071
0.219,0.305,-0.812,-37.903,92.102,-140.442
0.241,0.241,-0.858,-34.241,92.407,-144.836
0.263,0.177,-0.881,-24.780,93.506,-146.362
0.280,0.131,-0.858,-11.963,95.947,-144.531
0.276,0.109,-0.802,0.916,100.342,-140.015
0.254,0.108,-0.753,8.667,106.079,-134.583
0.233,0.097,-0.752,8.728,112.000,-130.432
0.209,0.060,-0.811,2.930,117.188,-128.906
0.208,0.025,-0.900,-5.188,119.690,-128.601
0.216,-0.012,-0.982,-12.512,118.103,-129.089
0.219,-0.062,-1.034,-17.578,111.877,-129.822
0.231,-0.112,-1.059,-20.752,102.783,-129.395
0.247,-0.171,-1.057,-22.156,93.750,-127.747
0.271,-0.228,-1.034,-21.851,86.792,-125.000
0.297,-0.272,-1.013,-21.057,82.520,-120.178
0.312,-0.319,-1.023,-21.362,79.834,-113.403
0.323,-0.376,-1.052,-22.827,77.576,-104.980
0.323,-0.411,-1.081,-22.461,75.562,-94.666
0.315,-0.425,-1.137,-22.400,74.524,-83.618
0.301,-0.430,-1.224,-24.353,73.486,-72.754
0.284,-0.418,-1.315,-25.818,69.763,-62.927
0.275,-0.390,-1.370,-25.635,62.195,-55.054
0.268,-0.353,-1.382,-24.658,52.612,-49.011
0.263,-0.349,-1.390,-24.048,42.847,-44.861
0.262,-0.350,-1.384,-22.522,33.875,-42.175
0.267,-0.343,-1.348,-17.822,26.428,-39.490
0.273,-0.343,-1.307,-12.634,21.545,-37.476
0.281,-0.345,-1.275,-7.751,19.287,-35.339
0.291,-0.344,-1.257,-2.625,18.677,-32.532
0.304,-0.344,-1.233,3.784,18.372,-29.236
0.312,-0.332,-1.196,10.620,17.822,-25.635
0.323,-0.307,-1.152,16.113,17.334,-21.851
0.333,-0.282,-1.113,18.921,16.724,-18.372
0.338,-0.263,-1.082,19.287,15.137,-15.686
0.350,-0.243,-1.058,18.127,12.634,-13.123
0.360,-0.223,-1.037,15.930,9.949,-10.681
0.362,-0.207,-1.019,12.878,6.897,-8.179
0.369,-0.177,-1.004,9.277,4.089,-5.676
0.375,-0.153,-1.000,5.920,2.197,-3.784
0.378,-0.140,-1.000,3.540,0.977,-2.441
0.384,-0.122,-0.998,2.747,0.061,-1.099
0.384,-0.106,-0.990,2.502,-0.732,0.183
0.382,-0.093,-0.987,2.014,-0.793,1.648
0.381,-0.071,-0.979,1.221,-0.610,3.723
0.386,-0.047,-0.973,0.854,0.183,5.127
0.389,-0.024,-0.968,0.427,0.916,5.737
0.390,-0.007,-0.968,0.366,1.648,5.676
0.389,-0.000,-0.970,-0.366,1.648,5.676
0.384,0.007,-0.968,-1.526,1.099,6.104
0.377,0.021,-0.966,-2.930,0.305,7.080
0.368,0.037,-0.966,-4.578,-0.793,8.118
0.359,0.052,-0.974,-6.531,-1.587,8.789
0.358,0.064,-0.980,-7.080,-2.380,9.094
0.359,0.078,-0.978,-6.653,-3.113,8.423
0.361,0.089,-0.972,-5.188,-3.784,7.324
0.366,0.089,-0.963,-3.479,-3.967,5.676
0.374,0.083,-0.952,-2.136,-3.540,4.333
0.391,0.085,-0.954,-1.099,-2.686,3.723
0.402,0.087,-0.961,-0.244,-2.197,4.211
0.399,0.094,-0.961,1.038,-2.502,5.554
0.392,0.107,-0.952,1.953,-3.052,6.897
0.395,0.111,-0.946,2.014,-3.601,7.507
0.401,0.114,-0.940,1.709,-3.845,7.324
0.401,0.115,-0.944,1.892,-3.906,7.141
0.403,0.114,-0.941,1.831,-4.272,6.958
0.399,0.121,-0.933,1.953,-4.883,6.958
0.393,0.137,-0.924,2.441,-4.700,6.592
0.390,0.147,-0.926,2.075,-4.211,5.615
0.390,0.143,-0.930,1.709,-3.906,3.906
0.383,0.137,-0.924,1.953,-4.150,2.747
0.379,0.130,-0.919,2.075,-4.517,1.831
0.378,0.126,-0.918,1.892,-4.456,1.282
0.377,0.118,-0.919,1.770,-4.333,0.732
0.382,0.103,-0.917,2.441,-4.700,0.000
0.395,0.093,-0.903,3.235,-4.883,-0.183
0.401,0.095,-0.888,3.479,-4.944,0.610
0.400,0.091,-0.884,2.319,-4.883,1.587
0.398,0.094,-0.886,1.465,-4.700,2.686
0.395,0.097,-0.885,1.282,-4.639,3.296
0.392,0.096,-0.883,1.343,-4.150,3.113
0.394,0.091,-0.879,1.831,-2.930,2.808
0.396,0.091,-0.878,2.319,-1.709,2.441
0.405,0.094,-0.888,2.075,-0.671,2.258
0.409,0.091,-0.905,1.160,-0.427,2.625
0.407,0.086,-0.923,0.977,-0.549,3.540
0.408,0.085,-0.928,1.587,-0.549,4.822
0.408,0.092,-0.929,2.869,-0.671,5.981
0.403,0.097,-0.934,3.662,-0.793,6.470

0.389,0.878,-0.674,-4.089,-1.892,-0.610
0.464,0.871,-0.414,11.047,-9.216,2.625
0.425,0.962,-0.287,17.944,-12.695,6.775
0.368,1.009,-0.193,13.062,-5.310,7.812
0.366,1.030,-0.163,6.775,5.493,2.014
0.382,1.005,-0.244,-0.427,15.381,-6.470
0.408,0.917,-0.390,-5.859,21.545,-12.756
0.449,0.791,-0.490,-3.479,22.827,-14.526
0.460,0.765,-0.474,5.737,20.691,-8.057
0.410,0.853,-0.406,12.756,17.883,4.089
0.344,0.975,-0.391,13.000,15.747,13.611
0.310,1.041,-0.403,10.193,13.123,14.160
0.304,1.046,-0.380,8.667,9.399,7.874
0.319,1.020,-0.313,6.653,5.920,0.061
0.327,0.993,-0.280,3.113,6.226,-5.310
0.340,0.906,-0.309,-8.667,7.751,-6.775
0.366,0.918,-0.325,-12.573,8.545,-5.127
0.360,0.932,-0.335,-14.771,9.033,-2.563
0.305,0.994,-0.336,-15.503,9.705,-0.977
0.205,1.063,-0.341,-15.747,9.827,-2.380
0.224,1.105,-0.310,-16.724,9.277,-9.094
0.297,1.146,-0.289,-14.893,11.292,-21.545
0.133,1.112,-0.302,-14.771,16.052,-34.851
0.251,1.119,-0.324,-15.320,20.447,-44.128
0.358,1.089,-0.362,-14.160,23.193,-53.040
0.353,1.031,-0.352,-7.507,24.475,-62.622
0.328,0.971,-0.359,2.808,26.611,-67.932
0.344,0.932,-0.342,7.874,28.687,-67.200
0.376,0.946,-0.312,13.794,31.128,-62.988
0.396,0.953,-0.290,19.104,34.424,-59.387
0.383,0.973,-0.243,22.339,38.574,-56.702
0.357,1.007,-0.196,24.902,44.250,-55.969
0.322,1.037,-0.177,21.484,51.208,-58.472
0.293,1.038,-0.181,12.146,57.495,-64.697
0.287,1.012,-0.220,2.136,62.317,-73.486
0.277,0.987,-0.247,-7.141,65.369,-82.642
0.284,0.948,-0.298,-14.648,67.200,-90.210
0.297,0.902,-0.349,-18.860,68.115,-96.130
0.306,0.852,-0.396,-19.714,68.420,-100.037
0.308,0.825,-0.412,-17.151,68.604,-101.807
0.305,0.823,-0.412,-13.062,69.397,-102.661
0.306,0.828,-0.403,-10.437,71.716,-104.126
0.306,0.812,-0.417,-8.545,74.585,-107.056
0.315,0.752,-0.425,-6.531,77.820,-111.145
0.306,0.710,-0.427,-2.686,81.604,-112.976
0.296,0.697,-0.419,3.052,85.571,-113.892
0.289,0.689,-0.405,7.751,90.210,-116.394
0.279,0.656,-0.412,8.789,95.947,-121.460
0.267,0.599,-0.447,5.493,101.624,-127.625
0.270,0.544,-0.506,-1.770,106.018,-132.751
0.292,0.484,-0.593,-11.292,108.276,-136.047
0.317,0.412,-0.689,-19.531,107.178,-137.024
0.332,0.359,-0.746,-23.437,101.868,-135.071
0.336,0.345,-0.740,-23.010,93.994,-130.127
0.323,0.362,-0.696,-20.325,85.693,-123.596
0.286,0.385,-0.620,-18.799,79.651,-117.737
0.243,0.427,-0.554,-20.325,77.454,-114.746
0.214,0.452,-0.551,-27.771,79.163,-116.211
0.196,0.413,-0.620,-39.368,83.069,-123.413
0.183,0.338,-0.719,-47.913,86.609,-134.338
0.182,0.250,-0.812,-48.828,88.989,-145.325
0.203,0.156,-0.869,-43.213,90.393,-154.053
0.233,0.086,-0.901,-32.959,92.346,-158.203
0.262,0.034,-0.912,-20.569,95.154,-158.142
0.284,-0.009,-0.901,-9.216,97.839,-154.419
0.292,-0.028,-0.879,-0.427,99.487,-148.193
0.290,-0.032,-0.866,3.845,99.915,-141.785
0.277,-0.047,-0.860,3.418,99.060,-136.414
0.246,-0.066,-0.863,-0.854,97.351,-132.263
0.224,-0.081,-0.901,-9.521,96.741,-128.967
0.226,-0.109,-0.978,-19.165,97.107,-126.282
0.228,-0.137,-1.049,-24.658,96.924,-124.451
0.232,-0.158,-1.094,-25.452,94.177,-122.742
0.246,-0.182,-1.108,-23.193,89.417,-121.338
0.270,-0.230,-1.111,-19.165,84.290,-120.850
0.300,-0.294,-1.099,-15.076,79.285,-119.995
0.326,-0.337,-1.081,-10.925,74.097,-116.272
0.341,-0.362,-1.048,-8.423,69.397,-108.459
0.332,-0.374,-1.013,-7.507,66.284,-98.206
0.302,-0.366,-0.989,-8.423,65.002,-86.365
0.262,-0.337,-0.993,-10.437,65.125,-74.646
0.228,-0.300,-1.031,-13.794,65.979,-64.880
0.204,-0.268,-1.090,-17.456,65.613,-58.533
0.185,-0.258,-1.142,-19.470,62.317,-56.213
0.171,-0.280,-1.201,-20.874,57.190,-55.725
0.178,-0.325,-1.273,-22.949,50.781,-54.749
0.204,-0.358,-1.340,-24.170,43.945,-51.819
0.235,-0.370,-1.377,-22.095,36.682,-47.668
0.259,-0.373,-1.369,-16.052,29.358,-43.030
0.276,-0.366,-1.331,-7.690,24.353,-38.391
0.289,-0.345,-1.296,0.061,22.217,-33.569
0.301,-0.321,-1.271,5.920,21.240,-29.724
0.313,-0.304,-1.249,10.315,20.203,-27.039
0.328,-0.293,-1.220,13.855,17.883,-25.391
0.344,-0.284,-1.181,16.724,14.709,-24.231
0.365,-0.281,-1.141,17.334,10.986,-23.560
0.391,-0.281,-1.109,16.174,7.812,-22.339
0.409,-0.279,-1.082,14.465,5.188,-20.325
0.426,-0.272,-1.057,12.695,3.235,-17.639
0.441,-0.271,-1.036,11.353,2.075,-14.832
0.453,-0.266,-1.019,9.827,1.526,-11.780
0.456,-0.256,-1.009,8.545,1.282,-8.362
0.451,-0.242,-1.012,6.775,1.038,-4.883
0.444,-0.224,-1.020,4.883,0.488,-0.916
0.432,-0.212,-1.025,2.747,-0.488,2.380
0.417,-0.194,-1.025,1.221,-2.075,5.493
0.404,-0.176,-1.028,0.000,-3.540,8.484
0.390,-0.161,-1.029,-0.671,-4.822,11.047
0.376,-0.138,-1.018,-0.305,-5.615,13.184
0.367,-0.117,-1.005,0.916,-5.737,14.648
0.359,-0.103,-1.003,1.770,-5.310,15.503
0.356,-0.083,-0.998,2.869,-4.822,16.541
0.351,-0.058,-0.988,3.906,-4.578,17.700
0.336,-0.041,-0.976,4.211,-4.700,18.433
0.329,-0.023,-0.967,3.540,-4.944,18.555
0.327,-0.004,-0.958,2.563,-5.127,17.639
0.328,0.008,-0.952,1.587,-5.188,16.479
0.328,0.019,-0.947,1.526,-5.615,14.954
0.330,0.027,-0.941,1.465,-5.920,13.672
0.335,0.034,-0.934,1.831,-5.981,12.573
0.337,0.040,-0.934,1.892,-5.676,11.597
0.334,0.046,-0.940,2.014,-5.127,10.986
0.342,0.052,-0.949,2.441,-4.761,10.864
0.351,0.052,-0.949,3.113,-4.639,10.681
0.353,0.060,-0.941,3.723,-5.005,10.376
0.353,0.065,-0.935,3.357,-5.432,10.437
0.351,0.076,-0.937,2.502,-5.615,10.559
0.349,0.086,-0.933,2.197,-5.737,10.254
0.346,0.091,-0.925,2.747,-6.287,9.460
0.348,0.098,-0.909,2.869,-6.592,8.301
0.345,0.106,-0.896,2.625,-6.470,7.019
0.340,0.108,-0.896,1.953,-6.104,5.859
0.336,0.111,-0.900,0.916,-5.615,4.639
0.339,0.108,-0.906,0.000,-5.615,3.174
0.341,0.107,-0.897,-0.061,-5.676,1.709
0.340,0.102,-0.891,-0.244,-5.859,0.549
0.339,0.091,-0.889,-0.854,-5.493,0.061
0.341,0.087,-0.884,-0.916,-4.456,-0.305
0.349,0.083,-0.877,-0.488,-3.296,-1.282
0.355,0.076,-0.879,0.061,-2.075,-1.953
0.361,0.061,-0.889,-0.122,-1.038,-2.319
0.370,0.051,-0.898,-0.427,-0.793,-1.953
0.375,0.049,-0.901,-0.488,-0.977,-0.854
0.381,0.049,-0.901,-0.732,-1.282,0.244
0.378,0.043,-0.903,-1.282,-1.282,0.916
0.381,0.040,-0.912,-1.221,-0.793,1.099
0.389,0.040,-0.919,-0.793,-0.366,1.099
0.392,0.030,-0.927,0.305,0.366,0.610
0.395,0.020,-0.937,1.282,0.977,0.183

0.276,0.950,-0.380,4.761,-8.606,-3.418
0.250,0.887,-0.317,10.254,-4.028,-6.042
0.291,0.968,-0.291,17.944,0.854,-9.399
0.259,0.920,-0.347,12.573,9.888,-12.512
0.264,0.893,-0.399,9.644,14.343,-15.503
0.300,0.827,-0.428,12.207,14.282,-19.226
0.369,0.668,-0.387,15.320,12.939,-18.738
0.407,0.609,-0.323,16.479,12.573,-9.094
0.390,0.677,-0.356,9.705,13.733,8.789
0.311,0.812,-0.428,-0.244,12.695,26.489
0.244,0.957,-0.446,-6.958,7.507,33.813
0.214,1.020,-0.440,-12.207,0.793,29.724
0.225,1.037,-0.394,-15.686,-3.479,20.020
0.210,0.921,-0.406,-21.790,-6.104,11.292
0.256,0.940,-0.342,-23.071,-7.385,7.568
0.255,0.948,-0.314,-24.902,-5.493,6.958
0.257,0.975,-0.328,-30.701,-1.160,7.629
0.216,1.035,-0.347,-36.072,3.723,8.240
0.156,1.089,-0.392,-41.321,7.812,6.897
0.149,1.153,-0.440,-44.373,9.949,2.075
0.117,1.208,-0.463,-41.992,10.315,-5.981
0.101,1.261,-0.459,-38.635,9.277,-15.564
0.094,1.302,-0.445,-35.889,7.385,-27.283
0.093,1.300,-0.433,-34.180,6.165,-40.222
0.106,1.266,-0.432,-32.898,6.409,-52.246
0.124,1.227,-0.441,-29.724,8.362,-61.890
0.141,1.190,-0.452,-24.597,12.024,-68.726
0.147,1.163,-0.446,-16.174,16.296,-72.937
0.148,1.143,-0.417,-6.958,21.545,-76.294
0.150,1.126,-0.393,1.099,28.015,-79.773
0.156,1.099,-0.381,7.141,35.400,-83.801
0.148,1.077,-0.371,11.658,42.725,-88.074
0.145,1.058,-0.364,14.099,48.584,-92.773
0.142,1.029,-0.375,13.062,53.162,-97.839
0.140,0.989,-0.391,10.132,56.335,-103.271
0.145,0.944,-0.397,6.592,57.678,-108.704
0.152,0.902,-0.412,3.296,58.655,-113.220
0.159,0.863,-0.422,1.221,59.326,-116.821
0.170,0.826,-0.431,0.916,60.791,-119.202
0.177,0.787,-0.428,1.892,63.293,-120.422
0.176,0.753,-0.414,4.150,66.833,-120.483
0.179,0.738,-0.398,6.470,71.655,-119.934
0.186,0.713,-0.403,7.874,77.332,-120.056
0.183,0.690,-0.409,9.033,83.008,-120.544
0.175,0.689,-0.391,10.437,87.463,-120.605
0.158,0.686,-0.374,9.033,91.187,-121.643
0.140,0.665,-0.372,4.089,95.398,-124.939
0.127,0.626,-0.409,-3.357,99.915,-129.883
0.119,0.574,-0.474,-11.902,104.492,-135.254
0.116,0.529,-0.557,-20.081,107.849,-140.381
0.120,0.489,-0.654,-27.039,109.436,-144.409
0.133,0.432,-0.759,-31.555,109.253,-147.400
0.163,0.351,-0.834,-30.823,106.445,-149.048
0.189,0.308,-0.837,-23.499,102.234,-147.705
0.203,0.312,-0.813,-15.381,99.304,-143.616
0.204,0.316,-0.807,-11.169,99.365,-138.672
0.189,0.308,-0.807,-8.972,100.769,-136.108
0.168,0.305,-0.796,-7.019,102.600,-136.292
0.149,0.296,-0.804,-7.812,104.675,-138.000
0.138,0.270,-0.840,-11.169,107.117,-140.259
0.135,0.228,-0.886,-13.062,109.070,-142.334
0.146,0.159,-0.934,-10.742,109.131,-143.555
0.156,0.099,-0.942,-5.676,107.361,-142.761
0.156,0.069,-0.912,-0.366,104.431,-138.672
0.143,0.056,-0.870,1.404,101.746,-133.606
0.129,0.049,-0.839,-0.732,99.548,-129.822
0.116,0.028,-0.832,-6.409,97.717,-127.441
0.103,-0.014,-0.840,-12.512,96.130,-125.977
0.094,-0.050,-0.843,-17.944,95.398,-125.000
0.090,-0.082,-0.855,-22.217,95.825,-124.146
0.082,-0.127,-0.897,-26.367,97.778,-122.803
0.083,-0.173,-0.982,-31.738,99.609,-120.605
0.106,-0.227,-1.102,-37.720,98.633,-116.394
0.130,-0.273,-1.205,-41.565,92.957,-110.352
0.148,-0.284,-1.263,-43.945,82.886,-101.929
0.153,-0.272,-1.284,-46.631,70.496,-92.346
0.149,-0.259,-1.297,-50.171,58.289,-83.374
0.148,-0.245,-1.301,-51.819,48.035,-76.660
0.156,-0.232,-1.310,-50.232,41.016,-72.449
0.171,-0.237,-1.309,-45.776,36.682,-70.923
0.190,-0.255,-1.303,-39.490,34.180,-70.618
0.220,-0.278,-1.307,-32.776,32.959,-70.313
0.251,-0.303,-1.318,-26.367,32.471,-68.420
0.276,-0.321,-1.325,-19.714,31.067,-64.392
0.295,-0.324,-1.319,-13.977,27.771,-59.021
0.310,-0.317,-1.303,-9.766,22.888,-52.856
0.332,-0.304,-1.281,-6.836,17.700,-46.082
0.348,-0.290,-1.247,-4.272,12.939,-39.001
0.353,-0.270,-1.200,-1.770,9.094,-32.471
0.361,-0.241,-1.153,0.000,6.287,-26.733
0.364,-0.219,-1.121,1.099,4.578,-21.851
0.360,-0.207,-1.099,1.221,3.235,-17.639
0.357,-0.189,-1.084,0.977,2.014,-13.367
0.358,-0.169,-1.074,0.610,0.732,-9.583
0.357,-0.156,-1.062,0.610,-0.305,-6.958
0.358,-0.142,-1.042,2.136,-0.671,-4.700
0.362,-0.125,-1.029,3.906,-0.183,-2.625
0.359,-0.107,-1.025,5.554,0.916,-0.183
0.348,-0.079,-1.020,6.104,1.526,2.991
0.336,-0.054,-1.019,5.859,1.465,5.432
0.328,-0.033,-1.018,4.517,0.305,7.141
0.322,-0.017,-1.016,3.296,-1.160,8.240
0.319,-0.002,-1.007,1.709,-2.869,8.972
0.319,0.012,-0.997,0.854,-4.150,9.949
0.314,0.022,-0.991,-0.305,-5.005,10.925
0.305,0.035,-0.983,-0.854,-5.066,11.841
0.297,0.057,-0.977,-0.671,-4.456,12.268
0.292,0.081,-0.974,0.122,-3.540,12.329
0.283,0.096,-0.974,0.244,-2.991,11.292
0.278,0.109,-0.978,-0.122,-2.869,9.888
0.280,0.118,-0.978,-0.793,-3.357,8.240
0.288,0.117,-0.973,-0.977,-4.150,6.287
0.299,0.108,-0.966,-0.793,-4.944,4.700
0.308,0.100,-0.957,-0.183,-5.249,4.028
0.312,0.099,-0.951,0.854,-5.249,4.333
0.311,0.099,-0.948,1.953,-5.066,5.188
0.314,0.101,-0.940,2.686,-4.761,5.859
0.319,0.111,-0.921,3.113,-4.822,6.409
0.325,0.116,-0.917,1.892,-4.761,6.592
0.327,0.115,-0.926,-0.061,-4.700,6.836
0.330,0.111,-0.927,-0.610,-5.066,6.897
0.333,0.107,-0.922,-0.244,-5.249,6.531
0.343,0.105,-0.924,0.183,-4.883,6.165
0.351,0.101,-0.925,0.549,-4.395,6.287
0.349,0.089,-0.932,1.099,-4.333,7.263
0.349,0.089,-0.940,1.526,-3.906,8.789
0.349,0.101,-0.947,2.441,-3.296,10.376
0.342,0.109,-0.946,3.845,-2.930,11.475
0.331,0.124,-0.942,4.761,-2.686,12.146
0.322,0.139,-0.941,4.700,-2.441,12.390
0.317,0.152,-0.946,4.028,-2.014,12.024
0.314,0.161,-0.951,3.113,-2.136,10.498
0.318,0.160,-0.955,2.258,-2.686,8.667
0.322,0.148,-0.957,1.770,-3.357,6.836
0.323,0.134,-0.954,1.953,-4.150,5.310
0.328,0.132,-0.948,2.563,-4.395,4.883
0.334,0.136,-0.939,3.052,-4.211,4.761
0.336,0.138,-0.934,2.991,-3.906,4.822
0.338,0.141,-0.931,2.991,-3.662,4.700
0.343,0.144,-0.931,2.686,-3.540,4.456
0.344,0.144,-0.928,2.136,-3.418,4.028
0.343,0.144,-0.926,1.282,-3.601,3.967
0.342,0.146,-0.927,0.061,-4.028,3.784
0.341,0.145,-0.930,-1.282,-4.211,3.357
0.338,0.141,-0.935,-1.648,-4.333,2.930
0.341,0.140,-0.940,-1.343,-4.456,2.258
0.344,0.141,-0.935,-0.549,-4.578,1.709
0.348,0.133,-0.930,0.000,-4.333,1.160
0.349,0.125,-0.930,0.366,-3.479,1.160

0.015,1.176,-0.105,-18.616,-74.707,26.978
0.056,1.241,0.035,-16.357,-80.444,26.489
0.007,1.321,0.116,-13.428,-77.576,21.667
-0.018,1.283,0.166,-17.700,-63.049,13.428
-0.001,1.238,0.124,-19.531,-43.091,3.479
0.043,1.160,0.012,-17.212,-23.193,-3.540
0.059,1.088,-0.065,-10.620,-9.094,-5.371
0.083,1.055,-0.107,-0.488,-0.488,-4.150
0.072,1.035,-0.096,8.850,5.432,-0.183
0.040,1.106,-0.012,14.587,8.667,5.371
-0.011,1.196,0.032,10.864,11.414,8.118
-0.029,1.242,-0.025,-0.977,13.184,4.883
-0.023,1.211,-0.104,-10.315,11.780,-2.686
-0.003,1.173,-0.106,-12.085,7.507,-10.193
0.027,1.151,0.008,-12.207,4.272,-15.747
-0.006,1.138,-0.019,-21.362,2.136,-19.226
0.017,1.097,-0.039,-25.696,7.874,-21.729
0.024,1.092,-0.037,-29.358,9.827,-22.339
0.008,1.100,-0.036,-34.119,13.550,-22.217
-0.005,1.149,-0.034,-38.940,19.226,-22.766
-0.051,1.181,-0.036,-42.847,27.100,-26.611
-0.075,1.210,-0.076,-45.410,37.415,-34.546
-0.075,1.195,-0.123,-44.128,47.363,-45.410
-0.067,1.174,-0.159,-39.795,55.908,-57.007
-0.044,1.150,-0.184,-35.522,62.378,-67.017
-0.035,1.122,-0.205,-32.471,67.200,-74.707
-0.023,1.084,-0.225,-31.067,70.984,-80.261
-0.010,1.046,-0.241,-29.724,73.975,-84.534
0.016,0.995,-0.291,-29.419,76.721,-87.708
0.041,0.928,-0.344,-27.954,78.186,-88.257
0.057,0.900,-0.343,-22.827,78.125,-85.999
0.065,0.896,-0.316,-18.677,78.613,-81.665
0.056,0.916,-0.287,-18.066,80.811,-77.515
0.039,0.947,-0.278,-21.606,83.679,-75.317
0.024,0.963,-0.310,-28.564,86.609,-76.233
0.018,0.953,-0.348,-35.156,88.318,-80.444
0.023,0.918,-0.375,-39.978,88.806,-87.524
0.041,0.873,-0.380,-42.236,88.989,-96.069
0.068,0.828,-0.378,-43.335,90.515,-104.431
0.097,0.757,-0.392,-45.654,93.567,-112.183
0.129,0.675,-0.421,-46.631,98.145,-117.981
0.150,0.605,-0.444,-45.166,102.905,-120.972
0.155,0.538,-0.474,-42.358,108.093,-120.789
0.140,0.510,-0.513,-39.734,114.075,-116.516
0.125,0.515,-0.573,-38.269,119.934,-109.192
0.099,0.540,-0.624,-37.354,123.596,-102.173
0.074,0.579,-0.660,-36.560,123.779,-97.778
0.055,0.598,-0.690,-37.781,121.338,-97.839
0.043,0.589,-0.703,-40.344,117.188,-101.318
0.051,0.565,-0.706,-43.396,112.793,-106.812
0.071,0.517,-0.718,-47.119,109.131,-113.770
0.089,0.446,-0.741,-50.049,106.506,-119.812
0.108,0.383,-0.783,-51.514,105.347,-122.009
0.125,0.330,-0.846,-52.307,105.957,-119.995
0.131,0.299,-0.897,-50.537,106.873,-115.173
0.130,0.303,-0.938,-46.997,106.689,-109.741
0.133,0.313,-0.974,-45.166,104.675,-105.103
0.134,0.321,-1.000,-44.006,101.563,-101.257
0.145,0.321,-1.014,-42.053,97.046,-99.487
0.157,0.311,-1.012,-39.063,92.346,-99.854
0.170,0.298,-0.993,-35.095,87.646,-100.403
0.182,0.282,-0.962,-32.532,83.801,-99.915
0.187,0.265,-0.922,-30.884,81.177,-98.267
0.175,0.250,-0.896,-30.273,79.651,-94.727
0.156,0.257,-0.888,-31.372,79.590,-89.661
0.134,0.263,-0.925,-33.691,80.994,-84.167
0.110,0.255,-0.996,-36.072,82.397,-79.651
0.088,0.270,-1.063,-36.499,82.153,-75.623
0.078,0.302,-1.113,-35.034,79.956,-72.571
0.075,0.329,-1.136,-32.593,75.684,-72.449
0.078,0.324,-1.123,-29.968,69.702,-75.989
0.095,0.298,-1.078,-29.358,63.416,-80.811
0.127,0.264,-1.048,-31.494,58.350,-85.266
0.163,0.206,-1.056,-36.987,54.749,-88.562
0.194,0.142,-1.078,-41.931,51.147,-89.783
0.227,0.075,-1.102,-44.250,47.058,-88.440
0.264,0.027,-1.122,-45.471,42.725,-84.229
0.281,0.007,-1.123,-44.678,38.513,-76.660
0.278,0.015,-1.108,-42.603,34.729,-67.627
0.265,0.032,-1.099,-40.649,31.921,-59.265
0.249,0.045,-1.112,-39.429,30.396,-52.979
0.241,0.053,-1.135,-37.476,29.724,-49.072
0.237,0.054,-1.153,-33.630,28.748,-46.875
0.238,0.050,-1.161,-28.625,27.405,-45.532
0.244,0.037,-1.166,-23.437,26.062,-44.250
0.260,0.009,-1.171,-18.799,24.658,-42.603
0.274,-0.010,-1.168,-13.184,22.583,-39.673
0.276,-0.004,-1.139,-7.446,19.775,-34.912
0.274,0.017,-1.107,-3.906,17.090,-29.053
0.268,0.037,-1.093,-2.808,15.137,-24.109
0.265,0.053,-1.083,-2.441,13.000,-20.874
0.265,0.065,-1.067,-1.770,10.681,-18.616
0.270,0.074,-1.048,-1.099,8.240,-16.174
0.272,0.081,-1.041,-1.343,6.531,-14.282
0.279,0.094,-1.031,-0.854,5.310,-12.512
0.277,0.100,-1.026,-0.366,4.333,-11.047
0.277,0.099,-1.031,0.061,3.723,-9.277
0.287,0.107,-1.036,1.587,3.052,-7.385
0.287,0.113,-1.034,3.906,2.441,-5.554
0.287,0.126,-1.029,5.432,1.343,-2.991
0.284,0.141,-1.024,6.592,0.366,0.000
0.274,0.155,-1.016,7.141,-0.793,2.930
0.266,0.174,-1.006,6.958,-1.770,5.371
0.259,0.192,-1.000,6.226,-2.625,7.141
0.255,0.205,-0.995,5.798,-3.418,8.423
0.255,0.222,-0.986,5.249,-4.150,9.338
0.247,0.240,-0.972,5.432,-4.639,10.010
0.241,0.253,-0.960,4.944,-4.578,9.949
0.241,0.268,-0.947,4.517,-3.784,9.094
0.237,0.271,-0.947,3.906,-3.296,7.935
0.237,0.267,-0.947,2.991,-3.357,6.653
0.239,0.270,-0.938,2.502,-3.662,5.859
0.234,0.271,-0.925,2.075,-4.028,5.493
0.228,0.270,-0.917,0.610,-4.578,5.249
0.225,0.275,-0.916,-1.465,-4.822,5.371
0.222,0.281,-0.919,-3.113,-4.517,5.493
0.226,0.289,-0.922,-3.601,-4.456,5.066
0.220,0.287,-0.918,-2.991,-3.967,4.395
0.219,0.283,-0.915,-2.563,-3.418,3.174
0.224,0.286,-0.920,-2.319,-2.747,2.197
0.231,0.284,-0.925,-1.831,-2.014,1.587
0.229,0.281,-0.930,-1.099,-1.709,1.221
0.237,0.285,-0.918,0.061,-1.831,0.977
0.237,0.274,-0.916,0.366,-1.770,1.038
0.241,0.274,-0.923,-0.305,-1.892,1.770
0.245,0.283,-0.923,-1.221,-2.502,2.869
0.240,0.291,-0.919,-1.953,-3.662,3.967
0.230,0.293,-0.912,-2.991,-4.639,4.578
0.229,0.298,-0.904,-3.296,-4.761,4.150
0.236,0.292,-0.909,-3.967,-4.272,2.747
0.243,0.278,-0.915,-3.906,-3.723,1.587
0.248,0.277,-0.917,-2.991,-3.296,1.465
0.253,0.279,-0.911,-1.953,-2.991,1.770
0.247,0.274,-0.908,-0.916,-2.563,2.197
0.244,0.273,-0.907,0.000,-1.892,2.747
0.246,0.276,-0.911,1.099,-1.038,2.869
0.250,0.279,-0.913,1.953,-0.183,3.052
0.249,0.283,-0.909,2.930,0.427,3.418
0.251,0.284,-0.908,3.357,0.793,3.601
0.253,0.286,-0.903,3.113,0.793,3.601
0.255,0.283,-0.907,2.380,1.038,3.418
0.259,0.279,-0.912,1.404,0.793,2.930
0.261,0.275,-0.912,0.916,0.549,2.869
0.263,0.276,-0.906,1.099,0.366,3.113
0.257,0.275,-0.906,0.610,0.549,3.967
0.254,0.280,-0.916,0.000,1.343,5.188
0.248,0.287,-0.928,0.122,1.831,5.859
0.243,0.293,-0.937,0.366,2.075,6.042
0.244,0.303,-0.942,0.610,2.197,6.287

0.165,1.079,-0.297,-30.396,-26.794,-6.531
0.225,1.028,-0.213,-23.560,-23.560,-8.972
0.255,1.062,-0.213,-21.423,-20.142,-9.094
0.229,1.019,-0.246,-27.832,-13.916,-9.094
0.248,0.978,-0.344,-22.705,-3.845,-10.437
0.277,0.952,-0.329,-7.141,3.601,-13.062
0.280,0.912,-0.263,10.864,10.498,-15.869
0.307,0.820,-0.274,21.301,18.616,-15.564
0.313,0.782,-0.335,28.198,25.696,-8.545
0.277,0.867,-0.352,33.997,28.748,2.258
0.209,1.014,-0.334,34.180,27.405,10.681
0.147,1.113,-0.328,27.100,22.888,9.644
0.124,1.139,-0.332,15.503,16.296,0.122
0.135,1.143,-0.293,5.920,11.475,-11.841
0.146,1.045,-0.262,-11.047,4.028,-22.400
0.173,1.019,-0.234,-23.499,-1.465,-28.442
0.202,1.015,-0.221,-35.706,-3.357,-30.701
0.199,1.037,-0.222,-46.875,-1.892,-31.006
0.144,1.064,-0.239,-55.786,2.502,-32.593
0.126,1.103,-0.255,-61.584,8.301,-37.415
0.098,1.097,-0.279,-63.416,14.587,-45.959
0.093,1.078,-0.302,-61.829,21.179,-56.152
0.095,1.064,-0.334,-58.044,27.893,-64.819
0.101,1.047,-0.392,-53.772,34.485,-72.144
0.100,1.035,-0.425,-47.546,39.978,-78.552
0.093,1.051,-0.423,-39.551,44.373,-84.534
0.095,1.049,-0.429,-34.302,48.401,-91.125
0.114,1.016,-0.438,-31.616,52.063,-98.450
0.135,0.980,-0.450,-28.564,54.382,-105.042
0.160,0.928,-0.464,-25.330,55.847,-110.474
0.184,0.879,-0.464,-22.400,56.396,-113.403
0.208,0.837,-0.451,-19.531,56.641,-114.441
0.220,0.784,-0.434,-16.724,57.434,-114.197
0.225,0.746,-0.409,-14.648,59.021,-113.220
0.225,0.732,-0.390,-13.489,62.073,-111.328
0.220,0.717,-0.397,-15.442,66.345,-110.107
0.211,0.711,-0.419,-19.287,70.801,-110.352
0.196,0.703,-0.454,-23.804,74.585,-112.793
0.182,0.682,-0.496,-29.358,76.843,-118.164
0.181,0.643,-0.554,-35.889,77.515,-125.549
0.204,0.562,-0.640,-41.992,76.233,-133.362
0.243,0.478,-0.708,-44.128,72.998,-138.672
0.274,0.410,-0.745,-41.626,70.129,-139.282
0.298,0.362,-0.770,-37.292,68.970,-135.803
0.312,0.351,-0.768,-31.982,68.481,-130.615
0.308,0.368,-0.749,-27.161,68.665,-125.061
0.295,0.388,-0.742,-25.574,69.580,-121.521
0.280,0.389,-0.759,-28.015,69.946,-121.460
0.267,0.379,-0.782,-31.738,68.115,-124.207
0.262,0.353,-0.806,-35.645,64.514,-128.235
0.270,0.308,-0.816,-38.452,59.631,-132.324
0.276,0.260,-0.796,-37.170,55.420,-135.437
0.286,0.214,-0.779,-34.302,54.138,-137.146
0.292,0.162,-0.794,-31.189,57.434,-137.024
0.289,0.126,-0.827,-26.733,63.538,-135.132
0.284,0.107,-0.869,-21.667,69.458,-132.324
0.275,0.102,-0.918,-18.250,73.792,-129.456
0.263,0.104,-0.963,-16.663,75.745,-127.380
0.255,0.104,-1.002,-16.602,74.890,-127.014
0.258,0.068,-1.030,-18.311,71.045,-128.845
0.286,0.023,-1.044,-20.508,64.758,-130.920
0.327,-0.038,-1.047,-21.912,57.922,-131.653
0.358,-0.101,-1.042,-22.583,51.208,-128.906
0.383,-0.140,-1.028,-22.217,46.082,-122.070
0.394,-0.152,-1.010,-21.423,43.701,-113.403
0.396,-0.148,-1.004,-20.874,43.579,-104.614
0.401,-0.141,-1.015,-20.203,44.800,-97.534
0.402,-0.141,-1.028,-18.188,45.959,-93.079
0.411,-0.157,-1.044,-15.076,46.082,-90.332
0.428,-0.192,-1.063,-11.597,44.983,-88.135
0.451,-0.217,-1.077,-8.301,42.786,-84.839
0.467,-0.245,-1.093,-6.165,39.124,-79.834
0.478,-0.264,-1.094,-5.188,34.485,-73.486
0.479,-0.267,-1.082,-4.272,30.090,-65.857
0.476,-0.263,-1.079,-4.395,27.161,-57.983
0.478,-0.255,-1.085,-4.944,25.757,-50.476
0.473,-0.236,-1.091,-4.517,24.536,-44.067
0.471,-0.214,-1.093,-4.028,22.522,-38.696
0.467,-0.196,-1.085,-4.272,19.714,-34.790
0.462,-0.190,-1.079,-4.761,16.724,-31.982
0.465,-0.196,-1.086,-5.066,14.221,-29.785
0.479,-0.209,-1.095,-4.700,11.963,-27.466
0.487,-0.214,-1.089,-2.502,9.644,-24.048
0.491,-0.209,-1.071,0.305,7.629,-19.226
0.489,-0.196,-1.045,2.319,5.859,-13.672
0.484,-0.166,-1.020,3.601,5.005,-8.301
0.479,-0.137,-1.002,4.150,4.456,-4.272
0.474,-0.106,-0.983,4.150,3.723,-1.282
0.470,-0.078,-0.965,3.113,2.380,0.854
