aX,aY,aZ,gX,gY,gZ
0.372,-0.561,-0.220,-10.620,-3.113,35.950
0.384,-0.557,-0.133,-14.526,-3.357,41.199
0.354,-0.364,0.019,-11.902,-1.709,43.823
0.233,-0.343,0.061,-19.287,13.367,41.504
0.217,-0.354,0.063,-21.118,29.907,33.020
0.236,-0.419,-0.028,-9.705,46.143,20.752
0.236,-0.473,-0.084,7.324,57.068,11.719
0.194,-0.421,-0.015,26.001,61.768,7.874
0.152,-0.388,0.106,39.612,66.162,3.113
0.120,-0.421,0.205,46.814,74.646,-3.235
0.083,-0.442,0.230,44.678,85.144,-6.165
0.015,-0.407,0.238,34.790,93.018,-5.554
-0.065,-0.318,0.266,22.705,98.938,-5.615
-0.127,-0.233,0.283,13.916,106.140,-10.010
-0.166,-0.198,0.283,12.573,116.638,-19.714
-0.174,-0.202,0.270,20.935,130.798,-31.067
-0.173,-0.218,0.235,37.964,148.193,-40.771
-0.165,-0.190,0.225,58.838,167.419,-47.363
-0.178,-0.263,0.156,75.806,185.974,-49.683
-0.170,-0.265,0.119,91.492,200.134,-47.546
-0.169,-0.262,0.114,104.004,212.891,-42.419
-0.214,-0.236,0.133,108.948,224.792,-36.682
-0.293,-0.186,0.143,105.225,237.366,-31.738
-0.415,-0.173,0.112,92.468,250.732,-30.273
-0.451,-0.151,0.041,73.975,264.099,-33.081
-0.460,-0.174,-0.032,53.772,275.696,-40.833
-0.477,-0.246,-0.137,31.860,285.828,-51.514
-0.495,-0.315,-0.260,10.803,295.044,-60.913
-0.481,-0.390,-0.457,-6.226,305.176,-66.772
-0.468,-0.447,-0.641,-20.264,313.538,-67.444
-0.471,-0.479,-0.806,-28.320,317.017,-63.293
-0.477,-0.465,-0.932,-32.593,316.956,-57.251
-0.489,-0.447,-1.100,-30.884,316.284,-51.819
-0.516,-0.371,-1.229,-25.330,311.584,-46.021
-0.550,-0.374,-1.416,-22.583,306.396,-45.044
-0.585,-0.430,-1.670,-18.616,299.744,-49.072
-0.574,-0.550,-1.995,-13.428,288.513,-55.237
-0.519,-0.757,-2.339,-4.517,271.545,-61.340
-0.432,-0.929,-2.507,21.362,245.300,-61.340
-0.326,-1.074,-2.544,58.594,217.896,-52.979
-0.251,-1.190,-2.506,95.032,193.909,-37.231
-0.235,-1.261,-2.474,124.634,173.035,-15.564
-0.238,-1.312,-2.472,142.151,154.297,9.155
-0.249,-1.329,-2.479,146.729,134.766,34.912
-0.247,-1.306,-2.496,138.672,114.075,59.998
-0.253,-1.253,-2.533,118.896,91.614,83.313
-0.269,-1.211,-2.598,93.445,66.772,103.394
-0.284,-1.160,-2.657,69.031,39.368,120.850
-0.322,-1.091,-2.688,52.002,11.292,135.437
-0.345,-1.009,-2.699,43.823,-14.709,145.630
-0.349,-0.954,-2.700,45.837,-38.879,150.146
-0.339,-0.942,-2.686,60.486,-61.523,149.231
-0.312,-0.964,-2.614,86.487,-82.703,145.142
-0.274,-0.995,-2.485,122.620,-101.990,140.198
-0.248,-1.038,-2.334,162.109,-118.530,136.292
-0.212,-1.076,-2.185,194.885,-131.836,135.925
-0.195,-1.066,-2.014,220.764,-143.433,139.893
-0.207,-1.012,-1.832,240.234,-153.503,144.897
-0.229,-0.932,-1.672,250.793,-162.109,148.193
-0.231,-0.861,-1.577,250.000,-169.250,148.987
-0.219,-0.803,-1.532,235.474,-176.270,147.888
-0.202,-0.718,-1.503,216.003,-185.303,146.118
-0.191,-0.641,-1.462,198.853,-196.655,142.578
-0.179,-0.581,-1.405,183.105,-208.862,138.367
-0.165,-0.531,-1.347,170.105,-220.398,134.705
-0.135,-0.519,-1.299,158.691,-231.262,131.470
-0.106,-0.494,-1.214,149.109,-241.638,130.249
-0.106,-0.444,-1.120,145.081,-249.695,130.554
-0.093,-0.389,-1.026,142.578,-254.639,132.751
-0.057,-0.356,-0.966,138.977,-257.141,135.803
-0.023,-0.351,-0.910,134.277,-258.606,139.587
-0.015,-0.326,-0.835,131.348,-259.705,143.677
-0.027,-0.265,-0.727,131.592,-260.864,148.132
-0.029,-0.181,-0.593,133.423,-260.864,152.893
-0.023,-0.099,-0.486,134.521,-257.629,156.921
-0.017,-0.029,-0.396,133.118,-251.709,158.752
-0.027,0.030,-0.316,130.859,-243.469,158.691
-0.035,0.101,-0.232,129.517,-233.948,156.433
-0.038,0.184,-0.151,128.357,-223.450,152.710
-0.043,0.257,-0.076,126.892,-211.792,147.095
-0.048,0.334,-0.021,124.817,-199.158,140.259
-0.042,0.388,0.017,120.300,-186.096,132.935
-0.032,0.412,0.047,116.516,-173.767,125.854
-0.020,0.442,0.106,114.502,-161.743,119.568
0.000,0.475,0.164,112.854,-148.804,115.295
0.011,0.502,0.210,109.680,-133.423,113.159
0.019,0.519,0.235,104.431,-116.333,112.793
0.022,0.548,0.256,101.563,-98.328,113.464
0.016,0.584,0.274,103.149,-80.322,113.831
-0.008,0.618,0.298,107.483,-63.171,112.732
-0.032,0.655,0.341,114.197,-46.021,111.145
-0.058,0.696,0.386,122.131,-28.625,108.643
-0.087,0.721,0.429,128.967,-11.169,105.164
-0.123,0.733,0.468,134.460,5.676,101.135
-0.161,0.770,0.524,138.977,21.973,97.046
-0.199,0.832,0.589,140.686,37.598,92.041
-0.232,0.893,0.658,137.634,52.917,85.205
-0.272,0.947,0.708,129.272,67.566,75.134
-0.286,0.936,0.699,118.591,81.543,63.049
-0.367,0.990,0.809,112.427,93.567,51.697
-0.428,1.112,0.880,96.130,107.117,38.208
-0.430,1.118,0.895,67.078,123.230,19.592
-0.460,1.085,0.867,39.429,140.625,1.282
-0.489,1.052,0.793,12.207,158.997,-15.198
-0.498,1.006,0.716,-11.536,177.673,-31.921
-0.504,0.955,0.632,-31.738,196.045,-46.692
-0.518,0.931,0.554,-49.988,212.830,-59.021
-0.541,0.908,0.471,-67.200,227.661,-70.374
-0.569,0.880,0.386,-84.167,240.845,-82.458
-0.596,0.842,0.328,-100.464,252.319,-95.947
-0.625,0.789,0.265,-117.493,263.672,-109.985
-0.647,0.720,0.152,-137.268,274.292,-123.596
-0.671,0.631,0.039,-156.616,282.654,-135.803
-0.709,0.540,-0.030,-170.593,288.391,-148.010
-0.748,0.476,-0.091,-181.702,292.786,-160.278
-0.780,0.413,-0.179,-194.641,297.180,-172.119
-0.834,0.347,-0.301,-208.008,300.415,-183.411
-0.881,0.286,-0.441,-217.957,300.110,-194.885
-0.923,0.206,-0.569,-223.999,296.753,-206.177
-0.946,0.126,-0.719,-228.455,291.077,-217.163
-0.950,0.002,-0.878,-233.032,283.447,-228.149
-0.937,-0.146,-1.040,-235.229,273.315,-239.746
-0.875,-0.389,-1.219,-237.061,261.047,-251.953
-0.736,-0.674,-1.466,-241.638,246.033,-262.329
-0.556,-0.929,-1.702,-238.892,225.769,-270.935
-0.375,-1.180,-1.886,-229.065,199.463,-277.649
-0.131,-1.315,-1.944,-208.984,169.067,-280.090
0.039,-1.410,-1.853,-187.195,141.235,-275.513
0.148,-1.484,-1.952,-166.138,127.136,-260.742
0.215,-1.458,-1.824,-145.142,117.126,-234.070
0.252,-1.409,-1.818,-128.906,117.615,-196.533
0.182,-1.311,-1.889,-113.525,130.859,-152.771
0.137,-1.153,-2.005,-94.849,140.320,-110.352
0.088,-0.968,-2.145,-74.158,143.127,-74.646
0.007,-0.799,-2.266,-52.368,135.803,-52.307
-0.062,-0.659,-2.311,-30.640,119.324,-42.908
-0.092,-0.578,-2.271,-12.207,97.839,-43.152
-0.090,-0.554,-2.170,0.366,75.562,-48.584
-0.081,-0.546,-2.044,5.981,56.519,-53.772
-0.063,-0.541,-1.963,5.676,41.443,-54.138
-0.039,-0.542,-1.909,0.732,28.748,-49.805
-0.016,-0.544,-1.859,-3.723,15.869,-42.419
0.008,-0.540,-1.789,-4.822,2.136,-33.508
0.032,-0.526,-1.682,-2.991,-10.254,-23.743
0.044,-0.500,-1.550,0.916,-20.264,-13.794
0.051,-0.457,-1.420,6.592,-26.672,-4.272
0.059,-0.409,-1.310,11.414,-29.602,4.150
0.065,-0.364,-1.224,14.343,-31.006,12.146
0.069,-0.319,-1.144,16.663,-31.921,19.470

0.306,-0.323,-0.181,-39.795,-16.541,30.457
0.249,-0.248,-0.004,-54.626,-3.052,45.227
0.164,-0.131,-0.043,-67.017,10.864,51.025
0.056,-0.138,-0.093,-72.266,24.963,43.335
0.039,-0.179,-0.150,-63.721,36.499,27.710
0.060,-0.249,-0.152,-49.438,42.358,13.550
0.068,-0.277,-0.038,-34.119,46.326,4.395
0.058,-0.277,0.070,-22.827,54.016,-2.136
0.065,-0.370,0.077,-21.667,65.918,-5.676
0.084,-0.473,0.091,-26.672,76.416,-5.371
0.077,-0.495,0.137,-34.302,84.595,0.000
0.032,-0.457,0.195,-46.631,92.712,8.606
-0.023,-0.396,0.241,-60.852,102.234,12.939
-0.081,-0.381,0.270,-71.899,113.220,9.827
-0.116,-0.414,0.280,-77.576,125.793,2.441
-0.119,-0.454,0.266,-75.562,140.076,-5.188
-0.128,-0.508,0.250,-69.092,155.823,-9.827
-0.149,-0.552,0.235,-62.622,172.363,-9.644
-0.190,-0.536,0.197,-56.946,191.589,-4.822
-0.273,-0.578,0.059,-57.739,209.595,3.723
-0.326,-0.510,-0.032,-56.946,224.243,13.733
-0.381,-0.416,-0.078,-58.350,236.328,20.508
-0.475,-0.393,-0.226,-67.261,247.742,21.606
-0.537,-0.267,-0.289,-80.200,254.211,20.142
-0.534,-0.282,-0.558,-98.267,263.916,11.047
-0.520,-0.382,-0.864,-112.183,276.611,-5.554
-0.412,-0.474,-1.063,-109.192,277.161,-19.653
-0.319,-0.522,-1.186,-90.393,274.048,-28.076
-0.229,-0.586,-1.300,-69.153,271.240,-30.151
-0.167,-0.713,-1.496,-54.382,271.606,-27.405
-0.131,-0.864,-1.719,-45.959,269.348,-20.630
-0.124,-0.956,-1.912,-41.931,257.629,-7.751
-0.137,-0.994,-2.056,-45.410,235.413,8.667
-0.159,-1.001,-2.172,-52.490,205.322,26.062
-0.166,-1.029,-2.281,-56.091,173.584,39.795
-0.146,-1.074,-2.375,-50.903,145.691,48.096
-0.122,-1.084,-2.444,-35.095,124.146,51.880
-0.081,-1.073,-2.470,-12.573,108.521,52.368
-0.025,-1.082,-2.482,13.428,97.168,50.354
0.022,-1.091,-2.490,41.687,89.172,48.279
0.048,-1.094,-2.472,70.007,82.031,48.950
0.078,-1.079,-2.395,96.130,73.669,52.490
0.095,-1.033,-2.339,118.347,64.331,58.167
0.107,-0.989,-2.271,134.338,52.307,63.416
0.099,-0.947,-2.206,144.897,37.048,69.824
0.087,-0.889,-2.119,152.588,18.616,76.538
0.089,-0.823,-2.054,157.776,-0.916,82.336
0.088,-0.802,-2.023,160.339,-21.240,85.083
0.078,-0.810,-1.999,164.001,-43.884,85.632
0.077,-0.844,-1.934,169.617,-67.627,85.388
0.092,-0.907,-1.837,176.697,-89.539,85.571
0.130,-0.962,-1.748,182.190,-107.056,88.684
0.149,-0.988,-1.655,184.814,-120.361,96.191
0.147,-0.977,-1.573,186.401,-130.249,108.032
0.140,-0.955,-1.514,187.195,-138.489,121.887
0.114,-0.906,-1.466,187.256,-146.301,136.597
0.082,-0.837,-1.434,186.584,-153.809,150.696
0.062,-0.787,-1.424,185.547,-160.034,163.452
0.063,-0.764,-1.409,185.669,-165.222,173.645
0.062,-0.688,-1.365,188.354,-169.189,182.678
0.015,-0.603,-1.297,191.833,-173.279,189.758
-0.048,-0.497,-1.197,194.946,-177.673,195.618
-0.095,-0.377,-1.075,197.815,-182.373,198.975
-0.117,-0.261,-0.961,198.547,-186.279,198.364
-0.121,-0.181,-0.887,192.749,-188.965,193.054
-0.125,-0.128,-0.827,180.237,-191.284,184.814
-0.136,-0.074,-0.763,167.969,-194.031,174.561
-0.140,-0.037,-0.703,158.203,-196.533,164.429
-0.112,0.015,-0.648,146.484,-198.181,155.884
-0.084,0.054,-0.613,134.705,-197.815,149.719
-0.066,0.077,-0.582,125.122,-196.899,146.057
-0.044,0.112,-0.557,119.080,-196.228,145.081
-0.038,0.158,-0.518,117.004,-195.740,146.484
-0.060,0.211,-0.445,119.141,-193.054,148.376
-0.079,0.298,-0.337,123.657,-187.622,149.658
-0.085,0.381,-0.230,126.648,-177.795,147.888
-0.089,0.439,-0.143,126.587,-163.879,142.395
-0.085,0.475,-0.093,124.939,-147.339,134.521
-0.069,0.488,-0.089,122.559,-130.493,125.366
-0.052,0.494,-0.094,119.812,-115.479,117.676
-0.042,0.516,-0.083,118.103,-104.004,112.000
-0.036,0.547,-0.067,115.906,-96.069,107.544
-0.033,0.571,-0.040,112.427,-90.515,104.309
-0.023,0.596,0.000,109.253,-86.487,101.807
-0.024,0.614,0.036,104.431,-82.520,99.792
-0.031,0.634,0.062,96.680,-77.759,98.633
-0.044,0.667,0.075,86.731,-72.083,97.900
-0.061,0.705,0.087,76.721,-66.406,96.375
-0.091,0.739,0.077,69.031,-61.768,93.384
-0.118,0.762,0.077,63.721,-58.411,88.928
-0.142,0.807,0.121,63.232,-55.847,84.839
-0.169,0.858,0.195,65.247,-51.941,80.078
-0.196,0.908,0.277,65.430,-45.105,73.853
-0.219,0.963,0.364,63.660,-34.790,65.186
-0.241,0.988,0.442,60.547,-21.484,52.979
-0.255,0.985,0.510,55.908,-6.409,38.513
-0.262,0.977,0.578,50.415,10.376,24.780
-0.279,0.964,0.624,43.701,30.457,14.221
-0.302,0.948,0.646,35.095,52.795,6.775
-0.332,0.948,0.658,26.306,76.599,1.831
-0.382,0.953,0.665,18.677,101.196,-2.991
-0.442,0.955,0.656,10.132,126.282,-9.155
-0.493,0.961,0.629,-0.732,151.428,-17.883
-0.540,0.964,0.571,-15.442,176.025,-27.954
-0.593,0.941,0.488,-34.363,198.608,-39.978
-0.643,0.908,0.401,-55.054,218.445,-53.833
-0.683,0.882,0.333,-75.623,234.619,-70.190
-0.724,0.852,0.281,-96.313,247.009,-89.905
-0.762,0.800,0.235,-118.469,256.775,-113.159
-0.794,0.702,0.179,-143.372,263.550,-139.587
-0.818,0.605,0.110,-167.175,267.578,-167.908
-0.827,0.514,0.040,-187.073,269.592,-196.594
-0.832,0.391,-0.040,-204.773,270.874,-224.060
-0.835,0.218,-0.135,-217.224,272.827,-248.047
-0.841,0.039,-0.206,-220.642,276.306,-266.174
-0.828,-0.093,-0.241,-217.896,282.043,-277.405
-0.830,-0.159,-0.313,-216.858,291.077,-282.349
-0.860,-0.230,-0.426,-221.130,302.307,-283.447
-0.905,-0.332,-0.570,-231.384,312.439,-284.546
-0.919,-0.397,-0.835,-245.361,319.031,-287.415
-0.891,-0.526,-1.211,-257.690,318.298,-293.518
-0.810,-0.895,-1.775,-259.521,306.091,-300.171
-0.547,-1.342,-2.255,-240.112,276.855,-297.302
-0.127,-1.637,-2.464,-208.618,238.586,-279.114
0.167,-1.626,-2.358,-153.076,203.552,-254.700
0.212,-1.470,-2.130,-98.755,180.969,-228.760
0.106,-1.272,-1.900,-72.083,173.218,-198.792
0.066,-1.086,-1.843,-76.965,174.072,-164.551
0.045,-0.942,-1.940,-95.337,175.903,-129.761
0.017,-0.850,-2.132,-112.732,171.387,-98.389
-0.008,-0.810,-2.303,-118.774,156.616,-73.425
-0.027,-0.773,-2.380,-109.375,132.690,-56.763
-0.031,-0.749,-2.380,-90.149,106.140,-48.035
-0.027,-0.709,-2.321,-67.749,81.482,-44.006
-0.022,-0.651,-2.232,-48.828,60.730,-41.748
-0.014,-0.628,-2.177,-37.720,44.617,-39.795
-0.008,-0.635,-2.137,-30.029,30.884,-36.743
-0.009,-0.625,-2.072,-19.775,17.090,-30.396
-0.013,-0.599,-1.958,-6.348,2.869,-21.790
-0.014,-0.558,-1.807,7.324,-9.888,-12.268
-0.011,-0.505,-1.662,18.127,-19.653,-3.296
-0.007,-0.455,-1.536,23.743,-25.940,4.883
-0.005,-0.401,-1.434,27.588,-29.358,12.085
-0.015,-0.347,-1.344,30.823,-31.494,17.456
-0.028,-0.290,-1.260,33.752,-33.081,20.752
-0.032,-0.228,-1.182,36.499,-34.729,22.949
-0.036,-0.176,-1.112,37.537,-36.743,24.109
-0.046,-0.138,-1.052,36.133,-38.269,24.719
-0.052,-0.110,-0.999,32.837,-39.734,24.963

0.203,-0.408,0.082,-15.076,64.331,-26.184
0.224,-0.382,0.150,-10.681,70.129,-17.029
0.233,-0.329,0.180,-4.944,77.637,-11.230
0.143,-0.354,0.222,-5.493,90.393,-5.127
0.056,-0.286,0.218,-2.563,105.652,1.160
-0.023,-0.233,0.183,5.737,121.094,1.648
-0.087,-0.198,0.168,17.395,134.033,-3.723
-0.126,-0.176,0.213,26.367,143.372,-11.902
-0.180,-0.181,0.278,29.419,152.466,-21.973
-0.223,-0.211,0.272,26.917,163.696,-31.494
-0.231,-0.287,0.188,18.738,174.988,-39.307
-0.234,-0.359,0.130,9.644,182.434,-44.556
-0.260,-0.381,0.150,2.869,188.110,-46.326
-0.342,-0.364,0.165,-3.845,197.815,-46.631
-0.441,-0.327,0.127,-8.118,212.402,-49.194
-0.537,-0.336,-0.003,-8.179,229.370,-57.129
-0.592,-0.396,-0.179,-1.343,244.385,-68.115
-0.585,-0.435,-0.344,12.390,254.578,-76.965
-0.613,-0.368,-0.443,27.771,263.000,-81.909
-0.691,-0.497,-0.693,39.124,278.503,-85.754
-0.560,-0.427,-1.053,53.223,287.659,-76.111
-0.616,-0.363,-1.070,57.312,270.325,-55.847
-0.755,-0.336,-1.221,57.251,272.522,-55.176
-0.675,-0.224,-1.371,56.946,277.588,-54.565
-0.681,-0.186,-1.470,47.180,275.024,-56.458
-0.679,-0.231,-1.605,34.668,274.719,-66.284
-0.586,-0.250,-1.749,31.555,272.217,-77.026
-0.478,-0.330,-1.880,30.823,265.076,-86.182
-0.395,-0.451,-1.931,35.034,253.784,-91.309
-0.332,-0.505,-1.890,46.570,241.882,-90.149
-0.289,-0.527,-1.837,57.373,232.483,-84.656
-0.284,-0.579,-1.869,59.143,224.487,-77.576
-0.250,-0.673,-1.982,54.321,210.144,-69.702
-0.193,-0.793,-2.132,48.523,188.171,-59.265
-0.164,-0.870,-2.228,49.438,161.316,-43.457
-0.174,-0.886,-2.246,58.777,135.071,-22.827
-0.218,-0.875,-2.239,70.557,114.624,-2.991
-0.255,-0.880,-2.267,79.346,100.647,12.573
-0.266,-0.906,-2.345,85.999,89.966,21.729
-0.260,-0.978,-2.461,88.013,78.308,25.879
-0.277,-1.053,-2.548,87.585,61.584,29.053
-0.295,-1.070,-2.584,88.806,40.100,34.363
-0.278,-1.071,-2.623,88.135,17.822,41.626
-0.255,-1.098,-2.656,87.463,-3.418,48.523
-0.240,-1.136,-2.652,93.506,-24.292,55.115
-0.226,-1.162,-2.622,106.567,-44.983,62.500
-0.238,-1.164,-2.583,122.559,-64.941,71.716
-0.273,-1.134,-2.545,138.550,-84.900,82.642
-0.327,-1.065,-2.506,151.245,-106.018,94.360
-0.382,-1.003,-2.418,160.583,-128.418,105.408
-0.434,-0.982,-2.220,168.518,-151.001,112.976
-0.418,-0.907,-2.030,177.124,-168.518,117.371
-0.379,-0.835,-1.927,175.903,-178.040,119.751
-0.389,-0.794,-1.892,166.931,-184.937,120.300
-0.402,-0.746,-1.880,159.485,-194.763,119.873
-0.400,-0.687,-1.836,155.762,-209.778,118.835
-0.408,-0.597,-1.738,153.564,-226.868,116.943
-0.415,-0.523,-1.628,150.940,-242.126,113.708
-0.401,-0.501,-1.513,148.621,-254.944,109.131
-0.369,-0.515,-1.402,148.804,-263.123,104.675
-0.348,-0.538,-1.259,151.917,-267.090,103.149
-0.262,-0.480,-1.105,155.151,-267.517,104.248
-0.236,-0.419,-0.989,154.358,-264.099,106.445
-0.226,-0.357,-0.914,146.179,-258.545,109.619
-0.203,-0.286,-0.863,134.583,-254.395,113.159
-0.187,-0.210,-0.805,127.014,-252.197,115.234
-0.183,-0.145,-0.735,125.305,-252.136,114.990
-0.171,-0.064,-0.667,125.610,-253.357,113.647
-0.149,-0.029,-0.598,125.061,-254.761,111.511
-0.161,-0.003,-0.517,125.183,-256.226,109.619
-0.182,0.028,-0.391,127.869,-257.324,108.459
-0.179,0.090,-0.258,130.249,-255.981,106.873
-0.159,0.143,-0.154,128.662,-250.488,104.004
-0.133,0.176,-0.084,123.596,-241.028,100.098
-0.139,0.222,-0.035,117.432,-229.797,95.886
-0.124,0.242,-0.005,114.075,-218.384,92.407
-0.094,0.252,0.012,115.540,-207.520,90.271
-0.065,0.257,0.049,119.995,-197.083,89.355
-0.035,0.277,0.102,129.272,-186.523,89.478
-0.011,0.313,0.170,139.282,-174.561,90.942
0.007,0.346,0.223,145.813,-160.339,92.041
0.018,0.372,0.265,151.062,-144.409,92.102
0.018,0.395,0.303,157.471,-128.601,90.820
0.034,0.407,0.339,165.222,-112.427,89.050
0.046,0.425,0.382,174.561,-96.680,86.548
0.052,0.453,0.430,185.425,-80.017,84.167
0.065,0.469,0.469,196.167,-62.317,81.970
0.078,0.482,0.499,205.627,-44.617,80.505
0.081,0.489,0.529,214.539,-27.832,79.956
0.077,0.492,0.563,222.656,-11.841,80.200
0.069,0.503,0.605,228.455,2.747,81.116
0.058,0.513,0.658,231.689,17.090,82.581
0.038,0.525,0.683,230.469,29.663,84.778
0.119,0.474,0.877,219.910,39.001,92.468
0.040,0.560,0.803,202.698,60.303,111.023
-0.090,0.630,0.745,200.134,80.017,116.272
-0.211,0.717,0.703,209.595,87.097,107.483
-0.103,0.847,1.016,207.947,83.313,91.858
-0.133,0.812,0.936,167.969,94.055,86.853
-0.153,0.763,0.917,138.550,98.755,80.322
-0.190,0.746,1.011,120.056,96.313,71.594
-0.193,0.710,1.108,97.107,97.534,63.965
-0.195,0.649,1.163,70.984,105.652,58.899
-0.198,0.573,1.194,46.997,117.371,56.763
-0.201,0.512,1.216,26.672,131.836,58.655
-0.208,0.468,1.242,8.728,150.024,64.819
-0.245,0.438,1.274,-5.737,172.302,73.425
-0.314,0.427,1.252,-22.583,199.402,83.069
-0.404,0.412,1.156,-43.701,227.661,92.529
-0.512,0.400,1.049,-63.354,253.845,100.220
-0.629,0.396,1.001,-78.674,278.320,103.638
-0.745,0.372,1.016,-92.468,303.955,102.356
-0.866,0.326,1.016,-111.633,332.397,98.022
-0.997,0.228,0.916,-141.907,362.488,93.750
-1.139,0.114,0.743,-176.331,390.259,93.384
-1.286,0.002,0.550,-206.177,413.818,97.900
-1.438,-0.051,0.336,-227.600,432.556,105.957
-1.582,-0.038,0.135,-238.464,446.411,115.417
-1.705,0.002,-0.002,-240.234,454.407,122.498
-1.827,0.063,-0.124,-240.601,458.252,126.465
-1.951,0.114,-0.253,-247.620,460.937,126.404
-2.045,0.161,-0.544,-261.963,466.370,121.826
-2.080,0.176,-0.842,-274.963,467.468,111.755
-2.062,0.157,-1.154,-286.438,458.069,95.154
-1.966,0.111,-1.529,-301.392,436.401,74.463
-1.808,0.043,-1.866,-310.852,399.902,52.490
-1.640,-0.069,-2.085,-313.660,353.516,35.828
-1.454,-0.179,-2.303,-316.833,310.059,29.480
-1.309,-0.213,-2.442,-308.105,268.982,32.715
-1.214,-0.166,-2.474,-290.161,232.178,43.213
-1.146,-0.091,-2.477,-270.447,204.895,54.321
-1.126,-0.019,-2.460,-245.850,186.707,60.364
-1.113,0.052,-2.443,-217.163,172.302,58.899
-1.092,0.131,-2.440,-188.782,160.217,52.490
-1.073,0.207,-2.437,-163.574,147.339,45.105
-1.019,0.233,-2.453,-145.813,130.249,37.231
-0.961,0.217,-2.441,-132.996,107.239,28.259
-0.899,0.182,-2.394,-122.559,79.895,19.287
-0.839,0.134,-2.329,-114.014,52.734,11.597
-0.775,0.095,-2.286,-104.492,29.907,6.226
-0.726,0.038,-2.216,-86.792,12.512,3.235
-0.692,-0.010,-2.088,-57.617,1.343,2.930
-0.646,-0.006,-1.922,-22.766,-2.686,6.653
-0.633,0.027,-1.779,9.399,-1.587,13.123
-0.628,0.096,-1.640,37.170,0.000,20.508
-0.623,0.181,-1.494,59.204,-1.221,26.855
-0.621,0.263,-1.363,72.876,-5.554,30.823
-0.619,0.336,-1.240,75.439,-12.390,31.433
-0.626,0.384,-1.150,68.298,-21.667,28.687

0.181,-0.368,0.098,14.465,25.574,-13.000
0.128,-0.371,0.150,4.089,32.715,-2.930
0.139,-0.320,0.254,-6.714,41.077,4.333
0.063,-0.323,0.283,-16.846,53.955,5.249
0.028,-0.341,0.307,-29.785,66.162,5.005
0.001,-0.359,0.285,-41.504,77.881,3.540
-0.022,-0.414,0.247,-51.331,89.478,1.831
-0.028,-0.482,0.243,-56.885,99.670,1.099
-0.022,-0.537,0.231,-59.143,111.145,2.563
-0.024,-0.597,0.210,-60.913,122.864,6.409
-0.051,-0.646,0.209,-60.303,134.216,11.780
-0.092,-0.648,0.198,-57.129,147.583,17.273
-0.153,-0.610,0.190,-52.490,162.659,21.667
-0.226,-0.585,0.175,-46.753,179.077,23.437
-0.286,-0.567,0.134,-39.185,197.144,22.095
-0.330,-0.561,0.044,-29.663,215.820,20.569
-0.358,-0.540,-0.053,-17.395,232.544,20.874
-0.386,-0.495,-0.150,-3.296,245.850,24.475
-0.410,-0.418,-0.231,11.169,256.226,30.273
-0.428,-0.351,-0.303,22.888,265.076,37.476
-0.444,-0.283,-0.365,32.227,272.522,45.044
-0.467,-0.201,-0.429,41.992,279.846,51.758
-0.523,-0.137,-0.512,48.767,288.513,56.763
-0.560,-0.091,-0.643,52.063,295.227,59.814
-0.624,-0.055,-0.733,52.734,300.842,60.974
-0.663,-0.059,-0.886,48.340,307.373,60.608
-0.660,-0.029,-0.985,42.908,306.885,57.800
-0.651,0.005,-0.993,21.667,298.584,53.528
-0.680,-0.095,-1.097,-21.423,293.274,49.500
-0.714,-0.142,-1.432,-59.509,292.236,48.401
-0.697,-0.187,-1.798,-79.041,281.311,48.035
-0.612,-0.216,-2.005,-82.642,259.338,50.171
-0.544,-0.231,-1.987,-72.144,236.084,53.406
-0.508,-0.260,-1.948,-57.190,223.999,55.603
-0.519,-0.321,-2.037,-40.161,224.976,57.556
-0.530,-0.321,-2.212,-18.433,226.379,61.340
-0.548,-0.294,-2.344,2.380,218.262,66.162
-0.568,-0.260,-2.358,18.982,200.867,70.251
-0.567,-0.229,-2.306,29.785,180.786,73.364
-0.576,-0.190,-2.288,36.987,163.086,74.219
-0.569,-0.177,-2.327,37.598,145.752,72.876
-0.534,-0.176,-2.405,33.630,128.357,70.923
-0.496,-0.183,-2.466,33.569,110.535,68.481
-0.469,-0.208,-2.502,39.551,91.431,64.880
-0.453,-0.238,-2.503,47.424,72.510,62.073
-0.448,-0.279,-2.499,54.871,54.504,59.998
-0.432,-0.332,-2.463,61.096,37.231,57.251
-0.399,-0.384,-2.430,67.566,20.630,52.979
-0.344,-0.468,-2.420,71.228,3.784,47.974
-0.276,-0.607,-2.422,71.960,-15.137,44.373
-0.224,-0.754,-2.413,75.745,-38.147,45.044
-0.189,-0.834,-2.376,84.839,-64.087,51.147
-0.174,-0.871,-2.332,95.398,-90.820,62.439
-0.169,-0.913,-2.291,104.065,-115.234,76.965
-0.194,-0.960,-2.253,114.319,-136.292,92.529
-0.201,-0.980,-2.214,128.174,-154.297,107.605
-0.186,-1.045,-2.155,142.761,-169.495,120.544
-0.165,-1.094,-2.082,160.034,-182.434,132.690
-0.161,-1.084,-1.967,180.359,-193.298,147.583
-0.179,-1.013,-1.843,202.087,-201.904,163.635
-0.173,-0.961,-1.780,219.666,-207.642,178.040
-0.164,-0.947,-1.734,232.727,-212.402,189.819
-0.187,-0.860,-1.615,248.901,-217.590,200.134
-0.215,-0.756,-1.443,270.569,-221.252,206.421
-0.229,-0.627,-1.250,293.030,-220.154,208.252
-0.226,-0.454,-1.090,311.462,-213.013,205.017
-0.220,-0.307,-0.998,319.397,-201.660,195.557
-0.231,-0.183,-0.937,316.895,-190.796,180.603
-0.232,-0.083,-0.880,311.829,-182.739,162.598
-0.228,0.035,-0.814,307.678,-176.270,143.555
-0.224,0.164,-0.751,303.101,-170.898,124.023
-0.208,0.283,-0.666,297.485,-166.748,102.661
-0.181,0.356,-0.589,290.405,-163.452,79.834
-0.152,0.356,-0.522,281.006,-158.264,57.678
-0.132,0.344,-0.450,272.522,-150.513,38.635
-0.116,0.346,-0.373,267.212,-141.235,23.437
-0.112,0.339,-0.307,262.207,-132.324,11.292
-0.111,0.335,-0.259,254.944,-126.099,1.343
-0.106,0.357,-0.209,245.911,-121.704,-4.700
-0.102,0.386,-0.154,234.375,-119.202,-8.545
-0.106,0.390,-0.105,220.520,-118.225,-12.573
-0.109,0.403,-0.072,205.872,-117.188,-14.832
-0.104,0.428,-0.033,192.200,-115.723,-14.893
-0.097,0.437,0.002,180.054,-113.953,-14.709
-0.100,0.440,0.063,172.607,-111.084,-14.099
-0.105,0.459,0.151,170.227,-105.042,-13.062
-0.117,0.480,0.236,168.945,-95.337,-12.817
-0.125,0.500,0.303,164.551,-82.458,-13.489
-0.122,0.522,0.345,155.640,-68.726,-14.099
-0.114,0.537,0.352,143.250,-54.810,-13.550
-0.108,0.521,0.331,130.554,-41.748,-12.512
-0.106,0.506,0.316,121.765,-30.396,-10.620
-0.110,0.513,0.329,117.859,-20.630,-8.423
-0.110,0.515,0.358,115.417,-12.390,-6.897
-0.105,0.530,0.406,111.816,-5.371,-6.348
-0.106,0.541,0.458,106.201,2.014,-6.348
-0.108,0.554,0.520,99.670,11.292,-6.653
-0.110,0.544,0.591,92.529,22.705,-8.179
-0.104,0.520,0.643,84.656,37.109,-9.277
-0.101,0.504,0.680,78.003,53.894,-7.507
-0.113,0.512,0.719,72.571,71.838,-3.479
-0.133,0.526,0.755,66.772,89.722,0.793
-0.151,0.547,0.779,59.326,107.117,4.395
-0.176,0.577,0.801,49.377,124.634,6.470
-0.206,0.600,0.826,35.828,141.663,6.531
-0.227,0.613,0.856,16.724,157.837,3.967
-0.248,0.589,0.874,-8.850,173.157,-0.366
-0.276,0.539,0.844,-40.039,187.805,-4.517
-0.310,0.508,0.751,-75.562,201.477,-6.165
-0.350,0.499,0.634,-110.168,213.684,-6.409
-0.403,0.481,0.529,-139.099,223.572,-8.484
-0.445,0.471,0.437,-162.903,231.995,-13.855
-0.476,0.448,0.378,-182.373,239.136,-21.667
-0.509,0.402,0.357,-198.486,245.911,-31.860
-0.549,0.333,0.337,-212.952,255.432,-42.908
-0.585,0.261,0.290,-228.027,268.311,-52.246
-0.624,0.177,0.198,-242.249,283.447,-58.228
-0.678,0.109,0.033,-251.831,300.354,-60.974
-0.710,0.048,-0.151,-254.700,316.101,-60.730
-0.731,-0.025,-0.309,-250.977,328.491,-58.411
-0.758,-0.033,-0.438,-239.380,337.463,-55.664
-0.782,-0.016,-0.554,-227.722,343.201,-54.504
-0.800,-0.004,-0.704,-225.403,344.238,-57.373
-0.807,0.001,-0.869,-230.530,338.135,-65.125
-0.805,-0.038,-0.993,-236.633,326.294,-77.087
-0.788,-0.144,-1.059,-240.234,313.232,-91.431
-0.739,-0.310,-1.235,-243.774,302.002,-105.896
-0.666,-0.506,-1.412,-237.488,289.734,-115.417
-0.559,-0.608,-1.450,-217.590,275.757,-111.877
-0.522,-0.621,-1.425,-198.425,264.648,-95.764
-0.567,-0.571,-1.469,-193.420,258.301,-72.815
-0.675,-0.487,-1.641,-202.087,252.625,-49.988
-0.809,-0.406,-1.904,-213.562,243.042,-34.241
-0.894,-0.302,-2.157,-216.492,227.295,-25.818
-0.926,-0.183,-2.339,-205.017,208.801,-23.499
-0.939,-0.090,-2.401,-180.847,191.711,-27.527
-0.933,-0.057,-2.364,-149.963,178.284,-38.574
-0.901,-0.132,-2.340,-123.047,168.152,-55.908
-0.825,-0.262,-2.371,-104.980,158.020,-73.853
-0.692,-0.435,-2.432,-95.276,143.860,-86.426
-0.542,-0.575,-2.512,-91.858,121.521,-88.257
-0.432,-0.648,-2.526,-89.355,89.783,-75.989
-0.389,-0.633,-2.443,-83.984,55.176,-52.551
-0.405,-0.547,-2.327,-74.768,28.015,-27.832
-0.453,-0.425,-2.213,-59.570,10.803,-8.789
-0.491,-0.310,-2.097,-40.649,0.854,1.099
-0.500,-0.231,-1.975,-20.142,-4.883,3.601
-0.494,-0.195,-1.857,-0.671,-8.240,0.244
-0.464,-0.195,-1.744,15.503,-11.536,-4.883

0.305,-0.323,-0.159,-107.483,18.982,-5.615
0.340,-0.393,-0.170,-103.088,23.682,-12.390
0.336,-0.362,-0.154,-82.397,28.748,-21.851
0.292,-0.376,-0.092,-71.533,31.067,-20.142
0.231,-0.331,-0.035,-71.350,31.433,-10.925
0.149,-0.265,0.000,-70.251,34.912,-8.667
0.089,-0.193,0.079,-66.589,39.001,-15.381
0.063,-0.219,0.121,-70.251,43.762,-26.672
0.063,-0.286,0.109,-76.904,50.415,-36.926
0.048,-0.314,0.108,-79.956,58.289,-43.396
-0.012,-0.264,0.143,-79.285,66.956,-47.485
-0.104,-0.199,0.175,-80.078,76.721,-54.077
-0.168,-0.164,0.188,-80.505,87.830,-67.078
-0.201,-0.191,0.187,-76.355,100.769,-86.121
-0.196,-0.265,0.166,-67.688,115.540,-105.408
-0.164,-0.354,0.144,-55.176,130.920,-120.789
-0.130,-0.428,0.118,-42.114,146.057,-129.700
-0.109,-0.494,0.077,-33.813,159.485,-132.446
-0.091,-0.542,0.001,-31.921,169.189,-130.615
-0.088,-0.589,-0.078,-34.668,174.072,-126.526
-0.093,-0.619,-0.141,-34.973,176.514,-121.155
-0.089,-0.709,-0.247,-41.443,177.185,-115.479
-0.093,-0.713,-0.301,-38.818,176.697,-109.314
-0.146,-0.707,-0.322,-33.508,178.528,-102.905
-0.209,-0.651,-0.383,-32.227,181.824,-98.022
-0.246,-0.623,-0.490,-38.635,183.716,-97.656
-0.265,-0.641,-0.567,-47.729,181.946,-101.990
-0.254,-0.716,-0.727,-53.772,178.955,-109.192
-0.212,-0.773,-0.807,-47.363,173.096,-115.173
-0.186,-0.828,-0.814,-33.813,167.664,-118.530
-0.170,-0.936,-0.855,-20.874,168.030,-119.568
-0.157,-1.028,-0.927,-6.714,170.471,-116.394
-0.146,-1.052,-0.907,5.920,168.030,-108.154
-0.182,-1.091,-0.871,9.460,163.391,-98.755
-0.229,-1.088,-0.878,6.836,159.790,-91.675
-0.228,-1.083,-0.888,0.854,153.076,-86.487
-0.213,-1.100,-0.966,-10.559,145.264,-80.811
-0.222,-1.110,-1.028,-18.860,135.803,-75.012
-0.240,-1.097,-1.043,-20.874,126.160,-70.435
-0.265,-1.088,-1.049,-20.203,119.263,-68.665
-0.269,-1.090,-1.061,-19.348,113.831,-69.702
-0.253,-1.109,-1.054,-16.785,107.544,-71.655
-0.244,-1.144,-1.014,-12.756,100.586,-73.792
-0.240,-1.176,-0.997,-10.803,94.849,-74.158
-0.227,-1.228,-1.028,-13.489,89.233,-72.693
-0.204,-1.304,-1.082,-16.357,82.947,-70.190
-0.161,-1.398,-1.112,-13.367,75.806,-66.528
-0.112,-1.476,-1.090,-5.249,69.580,-60.303
-0.087,-1.512,-1.040,4.333,65.979,-51.270
-0.075,-1.513,-0.991,11.475,64.453,-39.429
-0.080,-1.491,-0.959,14.038,63.416,-25.635
-0.107,-1.456,-0.953,10.620,60.669,-12.695
-0.134,-1.429,-0.976,2.319,54.810,-2.197
-0.136,-1.412,-0.999,-6.897,45.715,5.127
-0.130,-1.406,-1.013,-13.062,35.278,9.583
-0.122,-1.424,-1.020,-14.954,25.696,12.817
-0.117,-1.473,-1.020,-12.939,17.822,16.602
-0.104,-1.521,-1.000,-8.789,12.207,22.644
-0.081,-1.564,-1.022,-2.441,9.583,31.494
-0.082,-1.604,-1.031,10.498,7.263,40.344
-0.074,-1.633,-1.031,27.222,4.456,49.744
-0.045,-1.702,-1.084,41.809,2.014,61.096
-0.012,-1.812,-1.128,58.289,-1.404,74.707
0.013,-1.915,-1.121,81.360,-5.615,91.980
0.046,-1.981,-1.071,110.779,-8.545,113.281
0.079,-2.013,-1.053,139.771,-9.033,137.268
0.077,-2.034,-1.079,167.236,-8.667,163.391
0.064,-2.056,-1.134,192.505,-9.644,191.345
0.056,-2.073,-1.198,216.064,-13.123,218.933
0.038,-2.059,-1.236,241.150,-19.775,243.042
0.011,-1.984,-1.224,272.034,-28.931,261.597
-0.001,-1.866,-1.194,304.077,-38.696,274.719
-0.006,-1.758,-1.130,329.102,-48.157,281.860
0.001,-1.641,-1.047,345.276,-55.908,284.912
0.029,-1.533,-1.024,351.746,-60.730,284.485
0.077,-1.432,-1.034,348.206,-65.247,283.081
0.100,-1.315,-1.051,341.919,-71.716,281.189
0.094,-1.190,-1.047,337.280,-80.811,278.198
0.077,-1.055,-1.028,334.839,-91.248,275.330
0.074,-0.907,-1.005,332.092,-101.624,273.560
0.059,-0.732,-0.951,325.562,-111.511,272.095
0.036,-0.563,-0.888,316.040,-119.934,268.311
0.001,-0.422,-0.819,307.129,-127.686,260.620
-0.024,-0.304,-0.741,301.819,-133.240,250.916
-0.047,-0.197,-0.663,300.842,-135.315,241.455
-0.063,-0.097,-0.548,302.551,-134.888,231.873
-0.092,-0.004,-0.432,303.528,-130.005,223.022
-0.134,0.085,-0.323,303.589,-121.033,215.332
-0.179,0.179,-0.230,303.894,-110.291,206.848
-0.244,0.310,-0.145,304.687,-100.342,197.876
-0.320,0.467,-0.053,304.993,-92.896,187.317
-0.384,0.607,0.045,300.232,-89.844,172.974
-0.469,0.710,0.126,287.231,-89.905,154.724
-0.549,0.834,0.229,268.372,-92.773,133.484
-0.640,1.005,0.367,243.958,-97.839,108.948
-0.715,1.190,0.498,208.740,-104.553,78.674
-0.750,1.314,0.602,161.438,-111.023,42.114
-0.754,1.316,0.658,110.107,-114.929,1.465
-0.719,1.226,0.693,64.514,-114.624,-39.063
-0.667,1.104,0.730,32.776,-107.178,-76.294
-0.602,0.973,0.769,15.259,-92.346,-106.262
-0.525,0.845,0.806,4.761,-70.984,-127.625
-0.448,0.715,0.794,-3.113,-44.495,-140.015
-0.383,0.591,0.767,-5.432,-15.442,-144.653
-0.332,0.504,0.730,-1.892,14.648,-143.311
-0.299,0.443,0.690,3.662,47.119,-138.367
-0.282,0.403,0.645,10.254,80.322,-131.958
-0.276,0.375,0.608,15.625,112.305,-125.610
-0.282,0.360,0.572,18.066,141.418,-119.873
-0.300,0.344,0.538,16.479,168.213,-115.173
-0.325,0.329,0.501,11.963,191.956,-111.572
-0.355,0.313,0.477,5.127,213.318,-109.680
-0.386,0.310,0.469,-5.432,231.995,-109.131
-0.422,0.299,0.431,-24.353,247.925,-109.924
-0.466,0.274,0.356,-52.917,261.353,-110.474
-0.514,0.254,0.245,-84.595,272.217,-109.924
-0.581,0.217,0.116,-115.723,281.982,-109.558
-0.654,0.183,-0.008,-143.616,291.016,-109.375
-0.733,0.181,-0.112,-166.870,299.072,-110.413
-0.825,0.214,-0.244,-189.575,306.885,-113.464
-0.931,0.257,-0.458,-211.060,314.026,-120.422
-1.039,0.264,-0.741,-223.755,317.505,-134.705
-1.093,0.223,-1.056,-228.821,315.186,-157.288
-1.078,0.105,-1.383,-229.248,305.664,-185.852
-1.012,-0.097,-1.652,-218.018,287.537,-218.018
-0.853,-0.395,-1.826,-196.106,262.390,-248.047
-0.651,-0.731,-1.797,-171.509,234.985,-268.677
-0.473,-1.017,-1.787,-151.245,214.233,-272.705
-0.357,-1.193,-1.778,-136.902,202.576,-256.348
-0.237,-1.193,-1.811,-135.193,197.876,-220.215
-0.211,-1.130,-1.991,-142.029,194.031,-174.805
-0.261,-1.058,-2.176,-142.578,184.204,-136.719
-0.296,-0.958,-2.301,-127.502,169.861,-109.924
-0.323,-0.835,-2.327,-99.792,153.442,-94.788
-0.334,-0.753,-2.262,-69.763,136.047,-89.844
-0.331,-0.733,-2.166,-46.021,120.117,-91.431
-0.308,-0.760,-2.079,-31.860,107.422,-94.421
-0.271,-0.821,-2.041,-28.137,97.046,-96.130
-0.216,-0.902,-2.063,-33.997,85.876,-95.886
-0.148,-0.988,-2.130,-44.739,70.374,-92.285
-0.074,-1.078,-2.172,-53.589,48.828,-83.496
-0.026,-1.101,-2.135,-53.406,22.766,-68.420
-0.000,-1.046,-2.022,-46.143,-1.892,-48.706
-0.000,-0.977,-1.899,-37.659,-20.020,-28.320
-0.023,-0.905,-1.760,-24.353,-31.433,-10.254
-0.055,-0.815,-1.605,-5.676,-35.583,3.174
-0.077,-0.715,-1.475,14.771,-32.349,13.672
-0.099,-0.619,-1.373,34.485,-24.841,20.996
-0.124,-0.533,-1.282,50.720,-17.944,26.245

0.381,-0.276,-0.092,-32.837,-26.428,-22.339
0.363,-0.307,-0.062,-32.166,-9.216,-11.536
0.387,-0.273,0.010,-31.067,9.766,1.160
0.280,-0.241,-0.061,-26.245,32.104,13.977
0.223,-0.220,-0.145,-24.109,45.532,23.132
0.193,-0.211,-0.161,-19.287,50.842,23.499
0.177,-0.245,-0.110,-16.418,53.040,18.860
0.155,-0.311,-0.028,-17.578,57.495,15.625
0.154,-0.381,0.014,-22.888,65.613,15.991
0.145,-0.438,-0.015,-31.311,76.660,20.386
0.132,-0.478,-0.058,-40.710,87.036,28.198
0.095,-0.449,-0.033,-47.241,94.727,36.560
0.017,-0.382,0.009,-52.063,103.271,42.664
-0.062,-0.305,0.019,-58.838,114.807,44.128
-0.127,-0.278,-0.028,-67.444,127.258,40.161
-0.166,-0.287,-0.073,-71.411,139.709,33.142
-0.178,-0.322,-0.127,-69.580,152.222,26.184
-0.182,-0.363,-0.226,-62.988,165.466,23.743
-0.202,-0.386,-0.336,-48.706,178.833,27.710
-0.231,-0.355,-0.423,-26.367,191.895,36.682
-0.256,-0.277,-0.460,-0.854,203.613,47.974
-0.287,-0.174,-0.448,22.583,213.623,58.960
-0.331,-0.095,-0.402,38.635,223.022,67.383
-0.380,-0.012,-0.371,43.152,233.826,72.388
-0.447,0.004,-0.423,38.818,245.178,73.364
-0.469,0.030,-0.502,38.086,252.930,70.313
-0.489,0.032,-0.580,28.381,257.019,66.162
-0.527,-0.027,-0.670,9.827,263.184,62.317
-0.539,-0.066,-0.944,-11.902,272.827,63.049
-0.539,-0.084,-1.166,-22.705,272.400,65.491
-0.516,-0.076,-1.292,-28.564,260.132,69.946
-0.520,-0.074,-1.353,-32.715,243.835,75.256
-0.530,-0.051,-1.363,-39.001,229.187,81.848
-0.548,-0.046,-1.375,-50.415,220.093,88.379
-0.591,-0.037,-1.450,-59.937,217.224,91.919
-0.631,0.005,-1.556,-61.279,215.515,92.712
-0.651,0.044,-1.615,-55.542,210.327,90.088
-0.653,0.039,-1.645,-47.913,202.515,84.290
-0.667,0.016,-1.664,-38.818,194.275,77.271
-0.681,0.010,-1.687,-30.029,187.195,71.594
-0.680,0.022,-1.724,-23.254,182.190,67.444
-0.672,0.007,-1.803,-17.883,176.880,63.354
-0.652,-0.008,-1.870,-14.038,167.175,59.448
-0.631,-0.009,-1.890,-10.925,151.855,56.946
-0.614,-0.013,-1.853,-9.766,133.118,55.542
-0.619,-0.044,-1.772,-11.719,115.356,55.115
-0.625,-0.069,-1.679,-13.672,101.379,53.406
-0.619,-0.076,-1.665,-16.907,92.529,51.819
-0.614,-0.086,-1.724,-23.071,86.670,50.293
-0.606,-0.092,-1.785,-25.818,79.468,48.584
-0.593,-0.103,-1.802,-23.010,68.542,45.959
-0.578,-0.119,-1.773,-15.076,56.641,42.114
-0.559,-0.129,-1.715,-4.150,46.570,37.354
-0.543,-0.158,-1.633,7.080,39.001,32.776
-0.529,-0.191,-1.540,17.822,33.752,28.748
-0.513,-0.214,-1.495,25.635,30.640,26.428
-0.511,-0.240,-1.503,28.259,27.344,26.428
-0.522,-0.258,-1.534,28.259,21.606,28.809
-0.539,-0.272,-1.548,28.809,13.245,32.959
-0.552,-0.273,-1.553,30.884,4.150,36.926
-0.569,-0.268,-1.559,33.142,-4.333,39.368
-0.584,-0.262,-1.559,35.278,-12.939,39.734
-0.589,-0.253,-1.563,38.452,-22.766,38.391
-0.588,-0.262,-1.581,41.931,-33.142,35.461
-0.578,-0.319,-1.641,44.373,-44.067,32.776
-0.543,-0.426,-1.724,47.241,-56.519,31.494
-0.504,-0.527,-1.773,53.955,-71.411,33.813
-0.492,-0.602,-1.751,66.101,-86.243,39.856
-0.497,-0.658,-1.731,79.834,-97.351,48.767
-0.489,-0.706,-1.780,93.140,-102.661,59.204
-0.487,-0.744,-1.860,109.680,-105.591,69.519
-0.471,-0.776,-1.965,128.601,-109.192,80.017
-0.448,-0.807,-2.038,148.499,-116.333,91.431
-0.469,-0.774,-2.013,172.607,-129.517,103.088
-0.503,-0.678,-1.921,197.815,-146.362,113.770
-0.527,-0.553,-1.793,217.224,-162.964,120.911
-0.546,-0.463,-1.669,232.056,-175.659,122.864
-0.530,-0.434,-1.587,240.356,-183.655,118.652
-0.500,-0.434,-1.522,244.690,-188.477,111.389
-0.454,-0.431,-1.480,246.887,-191.223,105.042
-0.388,-0.437,-1.470,246.033,-193.298,103.333
-0.352,-0.402,-1.424,245.422,-196.289,106.995
-0.327,-0.307,-1.323,248.352,-200.439,113.464
-0.326,-0.190,-1.209,252.502,-202.698,118.591
-0.332,-0.080,-1.117,254.395,-201.843,119.873
-0.315,0.017,-1.046,255.859,-198.608,117.493
-0.305,0.069,-0.989,256.104,-192.871,113.342
-0.288,0.108,-0.954,257.324,-186.279,110.046
-0.272,0.168,-0.882,261.536,-181.458,106.262
-0.278,0.245,-0.759,266.968,-178.528,101.196
-0.293,0.341,-0.606,267.578,-175.476,94.299
-0.297,0.428,-0.493,259.155,-170.959,84.778
-0.301,0.479,-0.420,244.324,-166.321,72.205
-0.294,0.511,-0.363,226.562,-163.025,58.350
-0.267,0.532,-0.324,208.191,-161.316,45.105
-0.243,0.536,-0.292,192.444,-160.034,33.325
-0.225,0.531,-0.258,180.054,-159.302,23.315
-0.212,0.502,-0.213,169.983,-158.325,15.503
-0.198,0.481,-0.167,162.720,-156.433,11.414
-0.193,0.468,-0.115,157.898,-152.771,11.108
-0.199,0.468,-0.043,155.701,-146.973,12.268
-0.199,0.493,0.054,155.396,-138.855,13.733
-0.203,0.523,0.164,154.297,-128.296,13.306
-0.207,0.548,0.251,149.536,-115.417,10.742
-0.203,0.569,0.296,140.930,-100.525,7.507
-0.203,0.595,0.305,130.127,-85.449,3.967
-0.200,0.608,0.299,119.385,-72.205,-0.488
-0.205,0.614,0.308,109.863,-61.157,-5.432
-0.186,0.632,0.342,101.746,-52.307,-11.902
-0.198,0.616,0.370,90.088,-44.434,-19.470
-0.187,0.617,0.400,75.317,-37.842,-26.489
-0.182,0.584,0.438,59.265,-32.959,-35.461
-0.164,0.568,0.490,43.396,-28.198,-44.250
-0.137,0.543,0.531,26.184,-23.926,-52.368
-0.122,0.498,0.572,6.592,-19.897,-58.777
-0.112,0.452,0.603,-12.939,-14.526,-61.584
-0.108,0.431,0.627,-29.480,-6.653,-60.608
-0.119,0.418,0.637,-41.626,4.761,-58.044
-0.137,0.423,0.645,-49.866,19.592,-54.810
-0.162,0.438,0.679,-55.481,36.377,-51.819
-0.197,0.451,0.705,-60.791,55.786,-50.415
-0.227,0.463,0.683,-68.787,77.515,-49.622
-0.262,0.478,0.631,-77.881,99.915,-49.194
-0.299,0.504,0.563,-85.876,121.155,-50.110
-0.341,0.520,0.491,-93.506,139.648,-53.223
-0.381,0.532,0.427,-101.563,155.029,-58.167
-0.411,0.544,0.376,-109.436,168.518,-64.270
-0.436,0.539,0.323,-116.882,181.641,-71.899
-0.454,0.518,0.256,-125.366,193.909,-81.238
-0.462,0.484,0.203,-134.216,205.078,-91.187
-0.471,0.444,0.161,-142.517,215.637,-101.440
-0.486,0.392,0.087,-152.039,227.600,-111.694
-0.511,0.343,-0.013,-159.790,239.014,-121.521
-0.514,0.323,-0.093,-166.687,246.216,-130.188
-0.505,0.278,-0.196,-178.101,250.305,-137.939
-0.498,0.202,-0.293,-188.904,251.038,-143.066
-0.491,0.146,-0.392,-196.716,249.146,-143.616
-0.484,0.113,-0.494,-201.782,247.314,-138.306
-0.493,0.086,-0.609,-203.247,246.338,-129.700
-0.513,0.084,-0.647,-198.242,245.544,-120.728
-0.551,0.117,-0.650,-191.772,244.507,-113.281
-0.639,0.143,-0.569,-191.406,245.544,-109.436
-0.769,0.127,-0.599,-197.449,251.526,-111.755
-0.875,0.118,-0.709,-202.454,256.714,-121.887
-0.943,0.072,-0.927,-208.618,262.268,-137.390
-0.974,-0.084,-1.215,-208.984,268.066,-158.020
-0.918,-0.300,-1.458,-196.228,272.400,-176.880
-0.814,-0.512,-1.612,-168.213,276.001,-188.416
-0.702,-0.691,-1.663,-127.930,276.978,-190.735

0.180,-0.330,-0.187,-78.796,46.875,-3.540
0.270,-0.397,-0.093,-59.875,51.697,-0.610
0.262,-0.366,-0.008,-35.278,62.805,8.057
0.169,-0.324,0.073,-23.621,80.688,22.156
0.080,-0.237,0.072,-18.250,102.234,28.503
0.006,-0.185,0.026,-15.076,119.751,24.963
-0.032,-0.201,-0.002,-15.320,131.042,15.503
-0.033,-0.240,-0.016,-16.479,138.306,3.479
0.005,-0.341,-0.066,-22.034,142.700,-5.493
0.031,-0.443,-0.088,-31.006,144.287,-7.935
0.021,-0.461,-0.084,-38.269,145.630,-4.639
-0.034,-0.406,-0.069,-42.908,150.452,0.244
-0.116,-0.307,-0.057,-44.922,158.813,2.258
-0.218,-0.210,-0.068,-44.983,170.410,-1.770
-0.296,-0.124,-0.112,-41.321,184.570,-11.047
-0.339,-0.085,-0.204,-31.860,200.928,-24.231
-0.354,-0.083,-0.315,-16.724,218.018,-37.720
-0.352,-0.118,-0.432,2.502,233.582,-48.035
-0.343,-0.146,-0.518,24.963,245.667,-53.345
-0.332,-0.178,-0.582,46.631,254.333,-54.016
-0.339,-0.218,-0.625,62.256,260.986,-51.941
-0.340,-0.258,-0.652,71.777,264.587,-47.058
-0.331,-0.224,-0.649,74.829,265.991,-39.490
-0.384,-0.273,-0.803,62.805,268.066,-30.334
-0.355,-0.269,-0.957,46.631,267.883,-20.020
-0.362,-0.240,-1.024,32.837,260.315,-9.827
-0.403,-0.243,-1.063,10.986,252.563,-1.282
-0.419,-0.234,-1.115,-15.381,248.535,7.874
-0.423,-0.234,-1.321,-44.067,247.620,15.564
-0.458,-0.272,-1.527,-62.073,242.859,20.874
-0.458,-0.291,-1.664,-65.613,231.506,24.231
-0.435,-0.295,-1.755,-59.082,218.201,27.893
-0.427,-0.307,-1.801,-47.485,207.092,29.907
-0.451,-0.317,-1.852,-29.907,200.378,29.846
-0.474,-0.314,-1.916,-4.700,196.777,29.419
-0.473,-0.289,-1.920,26.123,192.444,29.724
-0.472,-0.254,-1.887,55.237,185.730,29.968
-0.467,-0.250,-1.803,75.928,177.490,30.518
-0.476,-0.239,-1.710,87.280,169.739,31.677
-0.521,-0.248,-1.634,89.355,161.865,31.860
-0.533,-0.216,-1.591,78.979,151.062,32.776
-0.548,-0.212,-1.684,53.833,138.855,33.997
-0.566,-0.237,-1.833,26.123,122.498,34.973
-0.551,-0.249,-1.935,5.127,101.318,36.560
-0.530,-0.274,-1.994,-5.310,79.102,36.987
-0.515,-0.318,-2.000,-4.272,58.350,35.706
-0.506,-0.358,-1.975,4.883,42.114,34.485
-0.496,-0.397,-1.958,18.005,31.677,33.630
-0.495,-0.449,-1.963,31.982,24.597,33.020
-0.483,-0.495,-1.980,46.326,18.677,33.936
-0.445,-0.519,-2.009,60.425,12.573,36.133
-0.402,-0.573,-2.048,73.792,4.211,38.879
-0.366,-0.665,-2.080,86.426,-7.019,42.725
-0.342,-0.749,-2.073,98.572,-22.583,49.683
-0.337,-0.788,-2.029,108.337,-41.077,60.120
-0.345,-0.788,-1.986,113.342,-60.120,73.059
-0.364,-0.749,-1.968,113.708,-78.674,86.426
-0.388,-0.693,-1.979,112.122,-96.252,98.022
-0.419,-0.651,-1.987,113.770,-113.159,105.957
-0.453,-0.618,-1.972,122.559,-128.174,110.413
-0.467,-0.592,-1.957,136.841,-139.404,112.366
-0.459,-0.573,-1.939,155.762,-146.240,112.549
-0.441,-0.566,-1.911,178.223,-149.048,112.122
-0.416,-0.522,-1.866,203.918,-150.146,112.427
-0.385,-0.475,-1.801,226.929,-151.428,111.633
-0.368,-0.435,-1.721,243.591,-153.442,108.398
-0.379,-0.401,-1.637,256.409,-156.311,103.088
-0.372,-0.342,-1.542,265.503,-160.217,98.328
-0.343,-0.259,-1.457,268.738,-164.368,93.689
-0.310,-0.212,-1.420,265.503,-168.457,88.684
-0.294,-0.183,-1.378,256.409,-175.659,83.618
-0.296,-0.133,-1.313,247.681,-185.608,79.590
-0.285,-0.085,-1.240,240.295,-195.435,77.759
-0.267,-0.032,-1.169,232.605,-202.698,77.393
-0.263,0.023,-1.106,226.562,-207.275,77.148
-0.255,0.056,-1.067,221.375,-210.693,77.026
-0.236,0.088,-1.014,217.224,-214.722,76.294
-0.227,0.103,-0.951,216.125,-218.628,74.585
-0.226,0.115,-0.878,217.163,-221.069,73.364
-0.226,0.158,-0.787,220.154,-222.595,73.425
-0.239,0.190,-0.684,224.854,-221.863,72.449
-0.262,0.208,-0.581,230.286,-219.177,69.519
-0.262,0.225,-0.487,234.619,-214.661,66.284
-0.244,0.234,-0.406,238.281,-208.069,63.538
-0.231,0.234,-0.347,241.943,-199.646,62.744
-0.227,0.282,-0.294,244.263,-190.125,64.453
-0.232,0.335,-0.235,246.826,-181.763,65.552
-0.249,0.381,-0.155,251.709,-175.110,63.110
-0.255,0.406,-0.052,255.981,-169.434,56.091
-0.255,0.422,0.043,257.568,-162.292,46.143
-0.234,0.432,0.119,255.615,-153.137,35.828
-0.204,0.422,0.179,250.977,-142.761,26.428
-0.175,0.405,0.247,247.070,-132.324,18.372
-0.153,0.385,0.321,241.516,-121.643,13.123
-0.153,0.392,0.405,233.398,-110.718,10.681
-0.119,0.440,0.471,219.727,-100.464,9.644
-0.126,0.450,0.489,198.669,-91.431,8.545
-0.111,0.475,0.496,176.147,-85.571,6.958
-0.103,0.493,0.510,155.579,-82.153,4.944
-0.100,0.497,0.545,138.611,-79.041,2.991
-0.089,0.502,0.596,125.061,-74.585,0.916
-0.096,0.481,0.644,112.793,-67.078,-1.038
-0.104,0.467,0.677,101.807,-57.617,-2.808
-0.088,0.446,0.713,93.323,-47.607,-5.554
-0.084,0.417,0.756,86.182,-37.537,-8.484
-0.076,0.383,0.816,78.186,-27.832,-10.376
-0.061,0.355,0.887,66.772,-17.578,-9.460
-0.067,0.322,0.948,53.833,-6.592,-5.676
-0.089,0.306,0.999,39.734,5.920,0.610
-0.116,0.306,1.057,24.719,20.386,9.766
-0.162,0.331,1.125,10.437,36.743,19.348
-0.215,0.349,1.178,-3.540,56.824,27.710
-0.273,0.356,1.196,-17.822,81.421,35.461
-0.339,0.390,1.174,-33.081,108.887,43.274
-0.408,0.434,1.111,-49.194,136.963,49.866
-0.471,0.462,1.023,-66.467,164.001,53.650
-0.521,0.486,0.937,-83.862,188.293,54.077
-0.569,0.502,0.879,-101.074,209.473,51.331
-0.610,0.521,0.838,-119.751,228.760,44.983
-0.641,0.512,0.794,-142.883,246.948,34.729
-0.685,0.484,0.718,-170.959,264.465,21.851
-0.723,0.432,0.586,-202.637,280.151,6.592
-0.761,0.353,0.440,-233.704,293.091,-9.094
-0.797,0.265,0.320,-256.775,302.917,-26.001
-0.833,0.154,0.226,-273.987,310.974,-42.053
-0.854,0.047,0.182,-286.621,317.993,-53.833
-0.893,-0.029,0.145,-298.767,326.355,-57.495
-0.967,-0.085,0.048,-312.622,340.759,-55.237
-1.041,-0.114,-0.112,-321.960,359.314,-51.025
-1.108,-0.146,-0.309,-324.890,378.662,-47.913
-1.162,-0.147,-0.508,-320.801,396.118,-46.326
-1.192,-0.111,-0.710,-313.721,410.889,-46.814
-1.238,-0.113,-0.956,-308.960,422.424,-50.476
-1.268,-0.146,-1.274,-308.350,427.551,-58.838
-1.208,-0.239,-1.630,-306.702,420.532,-72.571
-1.041,-0.426,-2.064,-300.354,398.071,-87.769
-0.813,-0.705,-2.447,-285.278,359.192,-95.703
-0.570,-0.763,-2.567,-250.610,307.983,-85.205
-0.412,-0.653,-2.437,-206.238,255.798,-57.251
-0.459,-0.533,-2.186,-173.645,215.698,-23.376
-0.550,-0.356,-2.029,-160.461,193.542,9.705
-0.650,-0.142,-2.078,-161.499,186.462,38.208
-0.781,0.036,-2.246,-162.476,184.021,52.979
-0.845,0.176,-2.428,-152.954,177.307,50.049
-0.832,0.242,-2.571,-131.592,163.086,34.668
-0.791,0.228,-2.587,-101.379,141.724,14.282
-0.734,0.182,-2.503,-69.885,119.629,-2.136
-0.682,0.139,-2.365,-42.908,99.731,-10.010
-0.645,0.108,-2.225,-25.574,82.031,-10.986

0.161,-0.034,0.217,-98.450,18.311,5.432
0.128,-0.113,0.292,-86.365,20.691,-5.920
0.177,-0.078,0.410,-65.613,26.123,-17.090
0.140,-0.130,0.491,-48.157,42.786,-25.940
0.113,-0.123,0.480,-45.410,59.082,-32.349
0.063,-0.082,0.439,-44.983,69.946,-40.039
-0.007,-0.051,0.401,-45.776,74.585,-52.612
-0.056,-0.044,0.354,-46.448,77.759,-69.397
-0.077,-0.104,0.307,-42.786,81.055,-87.891
-0.088,-0.175,0.301,-34.119,86.914,-104.614
-0.112,-0.208,0.318,-20.569,96.985,-117.615
-0.158,-0.195,0.322,-6.287,111.206,-127.930
-0.218,-0.161,0.314,6.042,127.075,-139.709
-0.269,-0.155,0.283,14.038,142.639,-154.114
-0.284,-0.201,0.215,15.259,155.334,-169.678
-0.291,-0.282,0.141,12.146,163.940,-183.472
-0.292,-0.380,0.068,9.644,170.105,-193.542
-0.283,-0.469,-0.018,8.606,175.537,-199.524
-0.313,-0.540,-0.094,8.118,181.030,-200.684
-0.337,-0.641,-0.222,6.104,184.998,-198.303
-0.333,-0.673,-0.302,8.240,185.059,-195.251
-0.359,-0.714,-0.330,11.719,184.265,-193.176
-0.389,-0.762,-0.364,13.794,184.631,-191.467
-0.454,-0.751,-0.370,19.592,184.998,-189.514
-0.532,-0.749,-0.354,18.311,185.669,-188.782
-0.590,-0.810,-0.404,8.179,188.599,-192.688
-0.574,-0.863,-0.495,-2.502,191.650,-197.876
-0.559,-0.959,-0.613,-14.404,191.467,-202.454
-0.531,-1.046,-0.740,-19.958,186.646,-205.444
-0.474,-1.117,-0.791,-17.578,175.781,-205.078
-0.482,-1.184,-0.834,-10.925,164.673,-198.364
-0.530,-1.212,-0.870,-1.221,155.334,-187.012
-0.575,-1.211,-0.872,7.324,147.156,-176.453
-0.648,-1.250,-0.861,10.559,140.320,-170.105
-0.679,-1.282,-0.851,8.850,134.338,-166.809
-0.673,-1.314,-0.839,4.944,127.258,-165.466
-0.649,-1.365,-0.828,-0.793,118.530,-164.551
-0.622,-1.426,-0.821,-8.423,108.276,-161.682
-0.626,-1.486,-0.817,-14.893,96.802,-156.677
-0.653,-1.530,-0.811,-20.142,85.083,-148.926
-0.660,-1.605,-0.847,-25.513,74.951,-140.930
-0.657,-1.707,-0.844,-24.719,65.613,-134.338
-0.667,-1.834,-0.862,-20.996,58.350,-125.671
-0.652,-1.960,-0.891,-15.686,53.223,-113.647
-0.588,-2.009,-0.903,-6.714,48.950,-100.098
-0.538,-2.031,-0.902,4.639,45.532,-85.815
-0.521,-2.070,-0.916,13.550,42.542,-71.045
-0.503,-2.102,-0.935,20.874,37.842,-53.650
-0.487,-2.134,-0.950,28.809,31.372,-34.424
-0.462,-2.133,-0.961,37.964,24.048,-14.221
-0.423,-2.117,-0.970,48.828,17.212,5.188
-0.393,-2.083,-0.954,63.171,11.230,24.170
-0.375,-2.028,-0.903,80.811,6.165,43.030
-0.356,-1.961,-0.823,100.159,2.441,61.462
-0.345,-1.881,-0.738,119.446,0.061,79.407
-0.340,-1.805,-0.654,135.925,-1.587,96.130
-0.353,-1.755,-0.575,149.048,-3.845,111.755
-0.374,-1.717,-0.504,159.790,-6.348,126.282
-0.399,-1.678,-0.446,165.222,-8.850,140.076
-0.414,-1.635,-0.428,165.222,-10.498,152.222
-0.405,-1.606,-0.486,159.302,-11.841,161.987
-0.386,-1.601,-0.612,152.161,-13.672,169.922
-0.375,-1.609,-0.738,151.611,-18.433,177.917
-0.350,-1.614,-0.811,162.598,-25.513,186.646
-0.332,-1.599,-0.817,180.725,-32.227,197.021
-0.354,-1.575,-0.782,201.111,-36.682,208.557
-0.396,-1.509,-0.728,219.299,-38.208,220.398
-0.425,-1.414,-0.701,232.910,-36.377,230.042
-0.421,-1.316,-0.739,239.624,-33.752,234.436
-0.406,-1.248,-0.795,243.652,-32.654,232.483
-0.381,-1.202,-0.845,249.207,-34.790,225.891
-0.343,-1.166,-0.905,255.493,-40.222,218.445
-0.288,-1.132,-1.002,261.292,-48.401,211.731
-0.240,-1.106,-1.117,268.372,-59.143,207.031
-0.228,-1.110,-1.188,279.663,-71.472,205.261
-0.203,-1.107,-1.195,292.542,-82.825,206.665
-0.177,-1.034,-1.167,305.603,-92.224,209.290
-0.166,-0.923,-1.137,313.232,-100.159,210.815
-0.170,-0.783,-1.132,312.744,-108.887,209.778
-0.167,-0.673,-1.156,307.678,-120.300,205.505
-0.147,-0.592,-1.176,302.612,-134.827,198.364
-0.117,-0.531,-1.154,301.697,-150.940,188.843
-0.082,-0.478,-1.070,303.284,-166.626,178.223
-0.056,-0.416,-0.968,302.307,-178.650,168.335
-0.025,-0.357,-0.885,297.546,-186.401,159.607
0.029,-0.336,-0.809,287.720,-190.613,153.931
0.053,-0.276,-0.729,278.564,-192.932,151.489
0.052,-0.204,-0.651,271.423,-193.481,151.672
0.058,-0.137,-0.582,263.550,-194.153,153.015
0.066,-0.064,-0.529,255.432,-195.312,154.236
0.063,0.001,-0.476,247.864,-196.167,154.053
0.048,0.081,-0.418,240.906,-197.144,152.710
0.034,0.155,-0.343,232.849,-196.838,150.757
0.023,0.223,-0.278,224.548,-194.031,147.827
0.019,0.263,-0.218,216.736,-189.087,143.433
0.013,0.300,-0.153,209.717,-182.129,138.123
0.004,0.348,-0.079,204.224,-174.255,131.653
-0.005,0.390,-0.009,198.975,-166.382,123.901
-0.004,0.423,0.055,191.040,-158.875,115.662
0.001,0.458,0.095,180.420,-152.344,107.666
0.019,0.458,0.111,168.640,-146.851,100.769
0.039,0.433,0.128,156.860,-141.968,96.741
0.054,0.431,0.176,149.597,-136.047,97.229
0.044,0.452,0.234,147.522,-126.953,100.647
0.022,0.494,0.286,145.264,-114.441,104.370
0.006,0.547,0.321,140.747,-99.976,106.445
-0.003,0.596,0.344,135.559,-85.632,105.103
-0.016,0.634,0.382,131.897,-72.144,100.525
-0.031,0.665,0.436,128.723,-59.692,93.384
-0.041,0.685,0.470,122.803,-47.852,84.717
-0.042,0.685,0.482,112.793,-37.048,75.134
-0.042,0.666,0.486,101.624,-28.687,65.735
-0.048,0.624,0.490,90.393,-22.766,57.556
-0.063,0.587,0.509,79.712,-18.433,53.162
-0.083,0.567,0.558,69.946,-13.611,53.223
-0.113,0.582,0.620,59.326,-6.653,56.396
-0.160,0.625,0.688,47.791,3.540,60.364
-0.214,0.672,0.737,34.729,16.846,62.561
-0.239,0.736,0.808,20.935,32.166,62.256
-0.349,0.774,0.865,5.981,49.622,59.937
-0.374,0.861,0.923,-9.338,68.726,53.772
-0.466,0.881,0.903,-27.771,89.722,42.664
-0.495,0.885,0.864,-42.908,110.962,27.771
-0.531,0.835,0.830,-53.833,131.531,9.583
-0.550,0.768,0.815,-61.646,151.550,-8.484
-0.556,0.682,0.791,-69.519,170.471,-25.330
-0.545,0.553,0.765,-78.308,188.171,-39.551
-0.529,0.409,0.792,-86.670,204.712,-48.706
-0.521,0.295,0.848,-96.008,222.961,-51.514
-0.549,0.208,0.909,-111.816,245.239,-48.523
-0.639,0.173,0.873,-135.742,271.301,-41.870
-0.741,0.170,0.689,-164.978,298.584,-33.936
-0.853,0.231,0.517,-189.148,320.312,-28.625
-0.986,0.279,0.393,-205.627,337.708,-30.823
-1.101,0.292,0.266,-215.393,354.675,-42.114
-1.198,0.258,0.130,-223.022,369.080,-59.937
-1.290,0.222,-0.020,-232.971,378.967,-79.529
-1.353,0.170,-0.206,-243.225,385.559,-97.229
-1.408,0.024,-0.401,-249.817,388.489,-113.098
-1.425,-0.129,-0.624,-252.197,388.916,-122.864
-1.377,-0.216,-0.865,-255.981,386.353,-123.291
-1.328,-0.259,-1.077,-259.521,380.676,-118.652
-1.292,-0.264,-1.250,-260.010,372.559,-115.540
-1.258,-0.290,-1.440,-259.583,362.671,-117.371
-1.209,-0.354,-1.665,-258.362,351.379,-124.390
-1.140,-0.427,-1.889,-252.319,339.294,-132.874
-1.032,-0.551,-2.153,-241.760,325.806,-139.893
-0.852,-0.715,-2.381,-224.609,308.411,-140.442
-0.630,-0.851,-2.496,-195.618,284.424,-129.089

0.289,-0.183,-0.109,-59.814,0.244,6.897
0.374,-0.173,0.017,-40.649,9.644,6.409
0.297,-0.122,0.095,-16.907,22.766,4.700
0.198,-0.142,0.122,-12.390,36.987,10.559
0.172,-0.177,0.083,-16.663,47.974,13.733
0.133,-0.196,0.112,-16.174,56.519,9.644
0.107,-0.210,0.146,-19.592,63.843,6.836
0.064,-0.203,0.151,-26.489,73.608,4.761
0.033,-0.205,0.108,-33.386,84.595,0.793
0.021,-0.266,0.073,-39.307,93.506,-3.723
0.022,-0.329,0.045,-43.518,100.647,-5.615
0.008,-0.329,0.047,-45.288,108.215,-5.005
-0.046,-0.268,0.084,-44.983,117.493,-3.540
-0.101,-0.198,0.122,-43.823,129.150,-4.761
-0.150,-0.158,0.130,-42.542,143.188,-11.353
-0.191,-0.191,0.096,-41.016,158.569,-21.362
-0.205,-0.290,0.041,-36.621,173.645,-31.372
-0.185,-0.386,-0.011,-28.015,187.378,-37.537
-0.172,-0.459,-0.060,-16.418,199.463,-38.025
-0.183,-0.474,-0.134,-4.517,209.900,-32.959
-0.216,-0.440,-0.225,4.761,219.543,-24.841
-0.303,-0.420,-0.262,10.376,229.309,-15.930
-0.366,-0.366,-0.294,18.494,236.633,-8.423
-0.416,-0.299,-0.323,25.452,245.056,-3.296
-0.485,-0.243,-0.354,28.564,253.540,1.770
-0.562,-0.171,-0.395,25.940,261.414,6.409
-0.637,-0.101,-0.399,15.808,268.250,8.057
-0.711,-0.087,-0.581,-5.127,276.062,5.676
-0.730,-0.062,-0.788,-23.315,279.968,0.427
-0.745,-0.040,-0.891,-36.804,276.306,-7.019
-0.773,-0.078,-0.919,-53.223,274.109,-16.174
-0.791,-0.184,-1.238,-71.716,280.579,-22.583
-0.818,-0.196,-1.463,-67.627,283.997,-24.536
-0.789,-0.230,-1.626,-50.537,278.259,-26.672
-0.757,-0.251,-1.723,-28.198,267.334,-27.222
-0.727,-0.250,-1.661,-5.859,252.930,-25.635
-0.745,-0.276,-1.616,4.578,243.286,-23.010
-0.802,-0.337,-1.714,2.380,240.601,-19.958
-0.837,-0.381,-1.856,1.343,236.389,-15.320
-0.830,-0.400,-1.937,4.700,222.229,-11.536
-0.804,-0.466,-1.923,5.615,201.477,-8.972
-0.799,-0.540,-1.910,2.869,180.481,-6.165
-0.806,-0.588,-1.958,-4.150,162.720,-0.977
-0.810,-0.612,-2.041,-16.174,147.766,6.592
-0.839,-0.652,-2.201,-24.841,133.606,12.573
-0.833,-0.661,-2.327,-24.231,116.638,16.235
-0.777,-0.710,-2.435,-20.020,97.046,17.273
-0.736,-0.796,-2.494,-6.470,75.989,16.602
-0.693,-0.858,-2.514,15.625,54.199,17.456
-0.653,-0.887,-2.519,36.682,33.325,21.851
-0.624,-0.892,-2.508,53.162,13.794,28.870
-0.598,-0.894,-2.485,69.275,-3.967,36.377
-0.575,-0.893,-2.435,87.585,-21.118,43.091
-0.574,-0.904,-2.337,107.422,-38.574,49.194
-0.578,-0.900,-2.222,126.221,-54.810,54.199
-0.582,-0.875,-2.134,140.137,-69.458,59.021
-0.598,-0.830,-2.095,147.278,-83.496,62.073
-0.635,-0.783,-2.093,149.597,-98.877,62.073
-0.657,-0.775,-2.074,148.926,-117.371,59.265
-0.643,-0.791,-2.041,149.536,-136.414,54.932
-0.591,-0.807,-2.045,150.757,-153.442,51.575
-0.545,-0.827,-2.066,152.405,-168.396,52.429
-0.541,-0.834,-2.052,158.264,-183.533,57.495
-0.565,-0.836,-1.962,169.800,-199.524,64.636
-0.578,-0.812,-1.825,185.364,-211.243,71.716
-0.562,-0.742,-1.696,200.073,-216.187,76.843
-0.530,-0.646,-1.639,207.886,-215.515,79.407
-0.502,-0.571,-1.645,206.787,-214.661,80.017
-0.482,-0.544,-1.680,202.271,-218.750,79.407
-0.450,-0.526,-1.690,196.716,-229.675,78.430
-0.430,-0.514,-1.663,192.078,-244.751,78.552
-0.416,-0.477,-1.597,186.401,-260.681,80.322
-0.414,-0.409,-1.522,179.077,-275.024,85.022
-0.411,-0.342,-1.467,170.471,-285.767,90.210
-0.407,-0.297,-1.411,162.537,-293.945,94.360
-0.382,-0.233,-1.292,156.860,-299.866,96.863
-0.365,-0.152,-1.149,153.076,-301.514,96.436
-0.344,-0.102,-1.026,145.813,-297.729,94.482
-0.307,-0.054,-0.950,134.705,-291.260,92.957
-0.267,-0.038,-0.906,126.526,-284.668,91.003
-0.242,-0.053,-0.844,124.146,-280.823,88.501
-0.210,-0.075,-0.736,126.160,-279.053,87.280
-0.158,-0.093,-0.589,127.869,-276.550,88.318
-0.122,-0.081,-0.439,127.502,-271.606,91.553
-0.102,-0.041,-0.324,124.878,-263.794,96.741
-0.087,0.002,-0.235,119.385,-254.395,103.699
-0.092,0.052,-0.149,114.441,-244.263,110.229
-0.094,0.112,-0.069,110.168,-232.910,115.173
-0.099,0.169,-0.002,103.882,-221.436,117.554
-0.090,0.212,0.046,96.252,-208.923,118.652
-0.067,0.227,0.106,90.332,-195.374,119.629
-0.052,0.248,0.174,88.989,-179.504,120.483
-0.045,0.317,0.209,90.454,-162.048,120.789
-0.055,0.388,0.214,91.736,-144.592,120.239
-0.070,0.437,0.236,93.262,-130.249,117.676
-0.089,0.468,0.302,96.497,-118.286,111.938
-0.115,0.493,0.388,98.328,-106.628,103.821
-0.124,0.532,0.414,90.820,-95.886,95.398
-0.121,0.555,0.395,71.838,-88.135,88.440
-0.126,0.559,0.354,47.668,-84.167,83.435
-0.129,0.561,0.308,25.146,-82.947,79.834
-0.133,0.567,0.308,8.362,-83.923,76.660
-0.139,0.600,0.330,-2.563,-83.984,73.181
-0.142,0.622,0.350,-10.681,-80.688,69.092
-0.145,0.624,0.385,-14.282,-73.303,65.674
-0.147,0.625,0.417,-11.780,-60.913,62.439
-0.156,0.615,0.465,-5.127,-44.067,59.937
-0.172,0.633,0.498,3.479,-24.231,58.838
-0.181,0.659,0.501,10.986,-3.540,58.350
-0.196,0.677,0.511,17.761,16.052,56.763
-0.214,0.700,0.534,23.315,34.363,54.260
-0.240,0.713,0.550,25.024,50.903,50.842
-0.265,0.737,0.550,22.339,65.552,47.546
-0.290,0.782,0.553,17.700,77.454,44.861
-0.331,0.826,0.572,12.024,86.792,41.626
-0.388,0.858,0.619,5.127,94.666,36.133
-0.446,0.889,0.703,-3.174,102.661,28.748
-0.496,0.920,0.765,-16.174,112.915,19.592
-0.540,0.941,0.776,-34.058,125.488,8.972
-0.579,0.940,0.774,-52.429,139.343,-2.563
-0.613,0.939,0.771,-66.956,154.724,-14.099
-0.659,0.932,0.744,-78.064,173.279,-26.428
-0.705,0.908,0.687,-86.487,194.580,-38.940
-0.750,0.857,0.597,-93.323,217.957,-52.734
-0.778,0.780,0.480,-97.351,241.760,-67.688
-0.792,0.684,0.370,-97.595,264.465,-82.520
-0.816,0.602,0.236,-95.520,286.865,-95.032
-0.835,0.512,0.063,-96.313,307.007,-104.248
-0.848,0.392,-0.081,-96.497,322.266,-110.596
-0.856,0.254,-0.178,-94.055,332.947,-114.136
-0.850,0.131,-0.236,-92.407,339.844,-113.159
-0.835,0.064,-0.237,-93.628,343.689,-107.300
-0.852,0.012,-0.267,-101.379,345.703,-97.229
-0.889,-0.012,-0.300,-111.755,344.727,-86.243
-0.916,-0.031,-0.334,-127.258,339.844,-77.698
-0.968,-0.097,-0.410,-149.597,336.182,-70.801
-1.020,-0.139,-0.519,-169.067,334.778,-66.467
-1.074,-0.177,-0.677,-182.983,336.731,-65.918
-1.129,-0.230,-0.894,-188.049,342.834,-69.153
-1.155,-0.293,-1.106,-180.969,351.746,-74.402
-1.125,-0.384,-1.318,-163.391,362.061,-78.613
-1.045,-0.509,-1.550,-144.165,371.643,-79.102
-0.977,-0.650,-1.777,-125.305,375.061,-73.486
-0.918,-0.735,-1.903,-111.450,365.234,-58.960
-0.902,-0.681,-2.003,-108.032,342.041,-33.997
-0.948,-0.537,-2.011,-113.708,311.035,-5.249
-1.036,-0.395,-2.084,-128.052,281.433,19.287
-1.128,-0.237,-2.245,-142.395,255.615,35.217
-1.170,-0.073,-2.459,-157.043,229.553,43.579

0.194,-0.036,-0.234,-7.385,49.011,21.667
0.195,-0.156,-0.297,-13.062,54.932,23.132
0.281,-0.196,-0.369,-9.827,51.575,25.635
0.229,-0.229,-0.370,-4.272,49.072,32.776
0.204,-0.230,-0.325,-7.080,45.105,42.908
0.197,-0.240,-0.337,-12.024,45.166,52.734
0.181,-0.283,-0.383,-13.855,48.218,61.768
0.173,-0.320,-0.389,-9.766,51.880,71.899
0.161,-0.316,-0.366,-3.540,56.519,82.520
0.122,-0.299,-0.378,-2.197,62.744,93.384
0.081,-0.274,-0.406,-3.845,67.810,101.868
0.070,-0.276,-0.411,-4.211,71.411,106.873
0.044,-0.300,-0.391,-1.648,75.378,110.779
0.022,-0.299,-0.393,2.625,81.787,115.845
-0.007,-0.323,-0.403,8.972,88.867,121.033
-0.034,-0.364,-0.388,20.081,95.276,128.052
-0.059,-0.386,-0.361,34.668,101.807,138.977
-0.107,-0.366,-0.341,49.072,107.910,154.846
-0.182,-0.295,-0.300,61.523,112.549,174.683
-0.280,-0.178,-0.256,70.251,115.356,194.824
-0.381,-0.074,-0.231,71.899,116.089,211.243
-0.484,0.036,-0.220,65.186,114.746,222.900
-0.521,0.098,-0.049,52.063,112.122,231.262
-0.646,0.200,-0.269,37.964,111.084,236.633
-0.692,0.251,-0.261,24.536,111.938,242.126
-0.732,0.315,-0.301,13.672,116.333,247.681
-0.784,0.391,-0.410,8.301,122.803,252.808
-0.836,0.470,-0.490,13.000,127.563,257.629
-0.903,0.570,-0.389,20.935,131.287,262.451
-0.949,0.620,-0.464,14.954,143.494,264.893
-0.943,0.768,-0.581,21.240,153.076,265.625
-0.955,0.834,-0.708,16.296,151.672,262.024
-1.000,0.839,-0.853,4.333,141.479,256.287
-1.065,0.927,-0.881,-10.254,124.023,256.226
-1.142,0.978,-0.958,-33.020,111.389,256.714
-1.237,1.055,-1.113,-46.265,102.722,255.554
-1.323,1.197,-1.218,-46.143,91.675,255.249
-1.385,1.319,-1.245,-42.419,78.918,251.709
-1.433,1.425,-1.223,-38.635,68.115,242.065
-1.467,1.513,-1.215,-37.903,61.279,226.685
-1.480,1.535,-1.264,-41.931,56.824,207.764
-1.477,1.543,-1.300,-43.396,51.636,188.049
-1.449,1.575,-1.320,-41.382,45.776,168.518
-1.412,1.569,-1.353,-40.833,39.795,148.071
-1.385,1.540,-1.417,-41.626,33.386,128.113
-1.362,1.515,-1.507,-44.495,25.146,110.535
-1.342,1.482,-1.582,-47.852,14.587,94.360
-1.324,1.449,-1.622,-48.157,2.136,78.674
-1.309,1.402,-1.673,-47.302,-9.644,62.744
-1.293,1.324,-1.752,-46.448,-22.583,47.180
-1.243,1.243,-1.835,-47.546,-38.574,32.410
-1.196,1.146,-1.880,-48.462,-57.495,18.188
-1.156,1.034,-1.878,-46.753,-76.721,4.883
-1.105,0.904,-1.869,-39.307,-91.064,-5.859
-1.063,0.759,-1.873,-26.672,-99.060,-16.052
-1.006,0.627,-1.915,-12.085,-103.333,-24.963
-0.917,0.543,-1.967,1.587,-108.215,-31.921
-0.890,0.451,-2.025,10.742,-117.493,-36.316
-0.871,0.402,-2.022,23.376,-133.484,-39.185
-0.831,0.310,-1.956,32.104,-152.405,-42.603
-0.785,0.158,-1.874,41.748,-167.297,-43.579
-0.716,0.031,-1.808,57.800,-175.720,-41.321
-0.662,-0.009,-1.764,77.393,-177.368,-33.997
-0.659,0.013,-1.722,99.243,-176.086,-23.621
-0.781,0.106,-1.676,121.277,-175.110,-13.672
-0.751,0.132,-1.715,143.616,-174.561,-8.423
-0.704,0.131,-1.692,166.565,-175.354,-10.559
-0.715,0.169,-1.600,185.486,-181.763,-16.052
-0.771,0.165,-1.548,190.430,-193.054,-20.020
-0.782,0.210,-1.413,177.124,-210.632,-19.348
-0.776,0.332,-1.302,153.259,-231.628,-18.982
-0.766,0.344,-1.252,119.934,-252.808,-23.499
-0.745,0.257,-1.262,83.740,-275.024,-29.480
-0.665,0.216,-1.205,53.955,-298.706,-31.860
-0.606,0.205,-1.103,32.410,-318.176,-28.687
-0.574,0.190,-0.998,17.578,-330.261,-21.729
-0.523,0.191,-0.907,5.188,-334.778,-12.573
-0.496,0.150,-0.855,-5.371,-332.947,-2.441
-0.431,0.132,-0.755,-7.568,-328.064,8.057
-0.381,0.159,-0.585,-2.380,-319.092,17.822
-0.377,0.255,-0.458,3.540,-306.091,22.827
-0.368,0.445,-0.467,1.465,-291.382,22.522
-0.338,0.587,-0.481,-11.780,-281.494,15.869
-0.326,0.562,-0.458,-31.433,-277.161,4.700
-0.281,0.431,-0.423,-53.894,-276.123,-4.822
-0.222,0.362,-0.424,-74.585,-278.870,-9.033
-0.163,0.399,-0.442,-92.590,-284.546,-6.531
-0.131,0.458,-0.432,-107.788,-291.077,1.160
-0.136,0.506,-0.351,-120.422,-295.776,10.071
-0.145,0.532,-0.173,-135.132,-292.908,15.747
-0.153,0.551,-0.123,-158.997,-275.452,17.395
-0.142,0.625,-0.144,-174.438,-254.639,14.160
-0.130,0.719,-0.178,-180.542,-237.488,6.470
-0.131,0.724,-0.169,-176.270,-225.830,-5.676
-0.111,0.692,-0.109,-164.246,-219.604,-19.958
-0.066,0.645,-0.050,-150.818,-213.074,-33.691
-0.004,0.590,0.011,-140.442,-201.416,-43.579
0.033,0.550,0.045,-132.019,-182.129,-48.279
0.052,0.548,0.057,-120.544,-156.921,-49.438
0.067,0.561,0.065,-106.201,-130.737,-50.293
0.074,0.555,0.047,-95.703,-105.957,-51.392
0.094,0.539,0.005,-84.290,-85.083,-52.734
0.118,0.524,-0.022,-72.998,-68.420,-54.077
0.105,0.534,-0.002,-62.744,-56.213,-54.504
0.077,0.580,0.014,-54.688,-45.654,-54.077
0.050,0.611,0.044,-51.453,-36.316,-55.908
0.009,0.648,0.050,-52.124,-26.917,-61.157
-0.011,0.670,0.012,-57.129,-18.494,-69.641
-0.029,0.663,-0.041,-62.866,-12.939,-80.261
-0.049,0.636,-0.094,-65.308,-9.094,-91.309
-0.058,0.577,-0.123,-62.988,-5.005,-101.074
-0.050,0.539,-0.164,-55.420,2.319,-109.009
-0.044,0.515,-0.208,-43.945,13.611,-115.662
-0.058,0.512,-0.215,-29.114,26.306,-121.582
-0.083,0.540,-0.202,-13.184,38.635,-127.991
-0.113,0.563,-0.194,-1.587,50.110,-136.536
-0.143,0.559,-0.186,4.578,59.875,-147.339
-0.157,0.530,-0.176,6.226,67.200,-159.485
-0.176,0.495,-0.168,4.395,72.876,-171.143
-0.205,0.461,-0.190,-2.563,77.759,-180.908
-0.231,0.434,-0.239,-13.062,81.116,-189.636
-0.254,0.395,-0.293,-22.827,82.886,-198.486
-0.277,0.335,-0.330,-28.992,83.801,-208.069
-0.305,0.274,-0.366,-30.579,86.182,-217.346
-0.332,0.222,-0.394,-28.625,91.187,-225.586
-0.362,0.192,-0.412,-24.536,98.083,-234.436
-0.407,0.149,-0.432,-20.935,106.140,-245.300
-0.422,0.068,-0.446,-18.616,113.708,-257.202
-0.435,-0.031,-0.473,-14.648,120.972,-270.081
-0.446,-0.094,-0.458,-5.615,128.540,-281.616
-0.478,-0.159,-0.435,2.319,137.878,-289.734
-0.529,-0.195,-0.370,3.052,147.156,-293.884
-0.625,-0.260,-0.453,-9.705,154.724,-294.739
-0.691,-0.344,-0.546,-28.931,153.625,-295.166
-0.751,-0.510,-0.594,-53.406,141.968,-296.875
-0.760,-0.724,-0.637,-73.486,129.150,-301.086
-0.750,-0.960,-0.676,-77.820,121.155,-308.044
-0.727,-1.169,-0.722,-66.101,120.117,-314.392
-0.732,-1.387,-0.829,-43.335,126.526,-317.749
-0.681,-1.618,-0.961,-17.761,138.123,-314.392
-0.578,-1.808,-0.970,5.737,151.428,-304.443
-0.551,-1.874,-0.965,19.531,165.039,-287.781
-0.603,-1.901,-1.086,8.911,174.866,-263.977
-0.676,-1.857,-1.260,-19.226,172.119,-234.009
-0.757,-1.848,-1.507,-50.842,153.259,-203.430
-0.795,-1.831,-1.701,-68.542,122.253,-175.659
-0.828,-1.780,-1.724,-65.857,85.266,-155.334
-0.837,-1.751,-1.618,-52.673,55.481,-143.433
-0.829,-1.768,-1.538,-36.316,42.603,-138.916

0.355,0.071,-0.445,-15.076,9.155,14.771
0.400,-0.053,-0.384,-14.343,5.859,22.156
0.369,-0.046,-0.330,-8.606,5.493,33.936
0.285,-0.054,-0.293,-4.272,12.512,46.936
0.251,-0.020,-0.323,-0.854,22.461,58.350
0.226,0.001,-0.360,3.113,30.029,65.430
0.195,-0.002,-0.347,7.629,33.020,68.665
0.191,-0.038,-0.260,9.216,33.386,70.435
0.186,-0.121,-0.270,2.319,34.607,74.158
0.185,-0.190,-0.315,-7.812,34.729,81.482
0.170,-0.234,-0.337,-17.151,33.569,91.980
0.120,-0.221,-0.341,-21.301,34.485,104.553
0.051,-0.175,-0.328,-20.447,39.612,116.333
-0.009,-0.097,-0.314,-15.930,48.584,123.535
-0.079,-0.106,-0.395,-10.925,60.547,127.014
-0.109,-0.118,-0.474,1.770,70.007,128.052
-0.114,-0.149,-0.510,19.897,76.294,130.066
-0.138,-0.169,-0.495,39.307,80.811,137.512
-0.187,-0.156,-0.450,54.626,83.984,150.391
-0.242,-0.093,-0.425,61.584,85.327,165.649
-0.305,-0.032,-0.434,61.096,84.595,180.847
-0.308,0.067,-0.400,57.312,81.299,195.679
-0.461,0.127,-0.404,55.054,78.369,209.045
-0.537,0.240,-0.377,58.594,80.322,220.825
-0.595,0.374,-0.323,62.012,81.665,229.553
-0.648,0.494,-0.289,64.392,84.595,236.023
-0.690,0.572,-0.272,62.195,88.135,239.624
-0.709,0.607,-0.246,54.993,91.919,241.394
-0.711,0.684,-0.325,48.401,95.764,243.103
-0.712,0.744,-0.319,44.312,93.018,243.286
-0.760,0.739,-0.229,30.396,88.684,244.934
-0.796,0.752,-0.292,5.188,91.431,249.329
-0.821,0.845,-0.411,-0.854,97.351,250.366
-0.870,0.862,-0.403,-1.831,92.468,242.737
-0.818,0.820,-0.398,-12.512,86.609,236.816
-0.820,0.798,-0.448,-21.362,83.740,236.755
-0.889,0.852,-0.546,-21.362,86.060,241.150
-0.993,0.946,-0.593,-9.583,87.769,245.300
-1.057,1.068,-0.607,1.648,86.060,244.507
-1.078,1.157,-0.646,1.526,80.200,238.403
-1.135,1.172,-0.702,-7.141,71.594,229.553
-1.152,1.188,-0.743,-15.015,62.378,219.482
-1.166,1.228,-0.775,-19.958,53.772,210.449
-1.210,1.240,-0.765,-21.790,47.729,203.186
-1.270,1.276,-0.794,-22.888,44.861,195.740
-1.309,1.331,-0.869,-25.146,43.030,187.805
-1.345,1.357,-0.960,-27.344,39.795,177.551
-1.375,1.375,-1.023,-25.452,34.058,165.405
-1.359,1.409,-1.040,-20.264,27.466,152.710
-1.413,1.383,-1.075,-15.381,22.278,138.672
-1.403,1.413,-1.113,-9.705,18.005,125.427
-1.441,1.406,-1.185,-4.150,13.367,112.000
-1.430,1.398,-1.219,1.587,6.226,97.046
-1.424,1.366,-1.222,7.263,-2.258,81.421
-1.412,1.329,-1.230,12.634,-9.521,66.101
-1.394,1.290,-1.231,17.883,-15.869,50.659
-1.376,1.259,-1.241,20.813,-22.156,34.912
-1.347,1.223,-1.266,19.043,-29.968,18.066
-1.308,1.183,-1.307,11.780,-41.199,1.099
-1.296,1.078,-1.387,1.160,-55.908,-14.587
-1.268,0.955,-1.412,-9.277,-73.425,-27.649
-1.255,0.873,-1.391,-16.541,-91.553,-37.415
-1.211,0.821,-1.415,-25.757,-107.300,-45.715
-1.155,0.721,-1.494,-34.973,-120.239,-53.467
-1.106,0.606,-1.591,-38.452,-132.751,-59.448
-1.083,0.522,-1.661,-37.109,-147.888,-62.683
-1.047,0.490,-1.673,-33.020,-165.161,-61.890
-1.002,0.452,-1.664,-27.100,-183.105,-58.594
-0.980,0.349,-1.609,-17.822,-199.707,-54.749
-0.960,0.262,-1.539,-5.371,-211.121,-49.011
-0.925,0.217,-1.473,7.874,-216.309,-41.443
-0.871,0.224,-1.419,17.944,-217.041,-34.485
-0.853,0.270,-1.392,26.123,-217.163,-30.029
-0.839,0.295,-1.390,29.846,-219.482,-29.541
-0.819,0.274,-1.399,31.494,-224.609,-31.128
-0.777,0.216,-1.415,34.729,-230.774,-31.067
-0.734,0.165,-1.429,40.649,-236.145,-26.550
-0.703,0.177,-1.433,47.546,-241.516,-17.761
-0.690,0.165,-1.397,56.213,-247.986,-8.179
-0.700,0.215,-1.291,63.293,-255.554,0.061
-0.700,0.321,-1.171,67.261,-261.841,6.775
-0.667,0.385,-1.131,61.584,-265.991,7.385
-0.657,0.410,-1.043,48.462,-271.606,2.319
-0.592,0.431,-1.005,37.415,-277.100,-5.554
-0.515,0.421,-0.984,27.710,-279.419,-14.038
-0.470,0.359,-0.964,21.240,-279.541,-20.813
-0.412,0.290,-0.952,20.203,-276.611,-22.278
-0.345,0.219,-0.942,26.306,-271.179,-17.517
-0.281,0.177,-0.884,38.818,-263.916,-10.437
-0.253,0.198,-0.791,55.054,-256.287,-2.808
-0.233,0.238,-0.708,67.993,-247.986,4.089
-0.226,0.274,-0.623,75.684,-240.356,8.484
-0.221,0.314,-0.542,80.261,-234.131,9.827
-0.209,0.322,-0.463,81.665,-228.943,8.179
-0.183,0.321,-0.371,81.360,-224.304,4.822
-0.152,0.320,-0.292,78.796,-218.994,1.770
-0.135,0.286,-0.226,72.205,-212.158,0.305
-0.119,0.270,-0.168,63.782,-205.017,2.075
-0.104,0.305,-0.139,55.054,-198.364,6.226
-0.113,0.331,-0.102,45.105,-193.970,10.803
-0.119,0.376,-0.061,34.363,-191.895,15.137
-0.126,0.421,-0.014,23.499,-190.674,18.616
-0.132,0.468,0.019,12.329,-188.293,20.325
-0.133,0.508,0.061,2.258,-184.021,20.508
-0.141,0.539,0.120,-5.432,-178.406,18.127
-0.136,0.577,0.172,-12.451,-170.776,13.794
-0.125,0.598,0.220,-18.799,-160.400,8.728
-0.120,0.594,0.255,-23.987,-147.400,3.052
-0.109,0.590,0.273,-28.259,-132.629,-2.014
-0.101,0.579,0.299,-30.273,-116.516,-6.104
-0.105,0.581,0.327,-29.785,-99.121,-10.315
-0.105,0.593,0.329,-30.273,-80.444,-14.404
-0.126,0.601,0.341,-30.823,-62.256,-18.127
-0.170,0.666,0.352,-31.433,-45.898,-22.522
-0.222,0.739,0.355,-37.109,-32.227,-29.114
-0.272,0.793,0.344,-47.424,-21.790,-39.185
-0.315,0.826,0.333,-59.631,-14.038,-52.246
-0.357,0.844,0.331,-71.411,-7.385,-66.833
-0.397,0.854,0.335,-81.787,0.488,-82.153
-0.446,0.864,0.331,-89.417,11.414,-98.145
-0.496,0.875,0.320,-93.445,25.574,-113.098
-0.533,0.889,0.298,-92.346,42.664,-127.258
-0.579,0.912,0.262,-87.402,62.378,-141.418
-0.628,0.954,0.222,-82.031,82.153,-156.799
-0.673,0.981,0.169,-78.430,100.220,-174.316
-0.718,0.960,0.113,-77.332,115.723,-194.153
-0.760,0.921,0.058,-77.026,129.761,-215.393
-0.801,0.871,-0.009,-78.918,143.555,-237.732
-0.842,0.768,-0.092,-84.595,155.945,-261.780
-0.862,0.640,-0.186,-93.323,164.429,-286.865
-0.859,0.476,-0.282,-103.271,169.495,-310.669
-0.833,0.290,-0.378,-111.328,171.814,-331.299
-0.761,0.100,-0.424,-115.662,172.302,-347.107
-0.697,-0.096,-0.477,-117.615,174.988,-356.567
-0.627,-0.266,-0.585,-111.267,181.946,-358.521
-0.558,-0.383,-0.634,-94.177,187.988,-352.600
-0.547,-0.488,-0.681,-77.271,195.862,-341.492
-0.582,-0.510,-0.684,-57.739,205.200,-327.393
-0.647,-0.548,-0.676,-45.166,214.722,-315.186
-0.701,-0.638,-0.643,-45.044,221.191,-310.974
-0.734,-0.735,-0.611,-56.885,222.717,-310.974
-0.763,-0.828,-0.602,-78.979,220.459,-311.279
-0.804,-0.941,-0.645,-105.957,214.417,-311.829
-0.837,-1.097,-0.797,-130.493,205.566,-310.913
-0.833,-1.317,-0.994,-144.653,196.472,-306.763
-0.764,-1.547,-1.142,-140.503,189.758,-297.302
-0.690,-1.680,-1.182,-120.544,187.439,-281.799
-0.672,-1.709,-1.220,-95.154,189.880,-262.329
-0.753,-1.714,-1.279,-72.571,192.810,-240.417

0.299,-0.167,-0.074,-18.921,2.014,-6.836
0.272,-0.256,-0.114,-17.456,14.160,-1.038
0.339,-0.231,-0.135,-13.123,22.583,8.301
0.274,-0.261,-0.158,-9.094,31.006,17.029
0.251,-0.291,-0.169,-4.517,37.109,24.048
0.244,-0.312,-0.194,1.953,42.542,30.457
0.234,-0.335,-0.161,7.080,46.692,37.292
0.223,-0.357,-0.137,7.202,51.208,45.410
0.197,-0.367,-0.119,2.808,56.274,54.565
0.161,-0.385,-0.099,-4.150,60.852,63.843
0.122,-0.392,-0.082,-10.925,65.430,71.350
0.084,-0.394,-0.094,-17.700,70.923,78.003
0.045,-0.371,-0.113,-22.705,78.491,84.167
-0.006,-0.353,-0.110,-22.339,88.745,88.989
-0.044,-0.317,-0.138,-16.174,102.173,91.431
-0.064,-0.313,-0.195,-6.958,116.394,92.346
-0.078,-0.324,-0.264,4.028,128.723,94.421
-0.089,-0.341,-0.333,16.602,139.099,99.365
-0.109,-0.340,-0.365,30.518,146.667,107.666
-0.143,-0.314,-0.371,43.030,153.931,118.958
-0.171,-0.266,-0.312,51.270,161.743,131.836
-0.268,-0.155,-0.417,52.063,166.992,145.081
-0.329,-0.100,-0.424,47.058,174.316,156.799
-0.384,-0.010,-0.456,34.607,175.354,167.114
-0.451,0.057,-0.515,15.991,174.500,176.575
-0.511,0.138,-0.579,-3.357,172.913,185.364
-0.560,0.246,-0.652,-19.348,173.157,193.604
-0.610,0.345,-0.725,-27.100,176.270,199.951
-0.667,0.446,-0.722,-25.146,182.129,202.942
-0.696,0.541,-0.825,-17.212,192.810,202.637
-0.712,0.642,-0.830,1.587,198.792,198.242
-0.744,0.697,-0.811,8.545,202.026,191.345
-0.766,0.708,-0.784,-4.456,205.872,187.256
-0.796,0.745,-1.116,-26.978,214.111,185.547
-0.831,0.862,-1.250,-26.733,207.642,180.054
-0.822,0.881,-1.279,-32.288,192.932,170.654
-0.846,0.858,-1.214,-38.635,179.077,163.635
-0.874,0.866,-1.256,-45.959,173.706,159.363
-0.892,0.922,-1.392,-45.349,174.255,154.968
-0.899,0.992,-1.529,-34.790,172.241,147.461
-0.919,1.021,-1.603,-20.508,163.147,138.062
-0.903,1.045,-1.608,-8.850,149.841,127.869
-0.927,1.011,-1.629,-2.686,137.146,116.699
-0.892,0.999,-1.680,-1.587,125.244,105.713
-0.887,0.928,-1.762,-4.639,111.572,95.398
-0.859,0.874,-1.794,-6.470,94.421,88.318
-0.815,0.833,-1.771,-4.578,77.332,83.740
-0.825,0.791,-1.796,-0.305,63.416,80.688
-0.813,0.783,-1.837,4.150,49.988,78.613
-0.806,0.780,-1.875,11.108,35.645,75.684
-0.850,0.746,-1.866,25.146,21.240,71.228
-0.876,0.759,-1.790,44.189,8.362,66.162
-0.905,0.760,-1.740,62.012,-0.305,58.594
-0.904,0.741,-1.729,74.951,-6.592,49.133
-0.889,0.714,-1.757,82.092,-14.526,38.452
-0.860,0.666,-1.780,85.449,-26.917,28.015
-0.844,0.589,-1.730,87.097,-41.687,18.494
-0.825,0.527,-1.653,89.417,-54.688,9.949
-0.781,0.475,-1.642,89.233,-62.805,2.869
-0.728,0.401,-1.708,87.524,-68.604,-2.747
-0.688,0.313,-1.778,88.989,-77.026,-6.592
-0.662,0.247,-1.822,95.642,-89.172,-8.057
-0.657,0.224,-1.830,105.896,-103.455,-6.287
-0.665,0.235,-1.815,118.286,-118.042,-4.150
-0.674,0.256,-1.788,132.202,-130.798,-2.686
-0.685,0.246,-1.746,147.034,-140.991,-3.784
-0.701,0.215,-1.665,163.879,-149.353,-6.409
-0.698,0.189,-1.550,179.687,-155.273,-10.620
-0.676,0.190,-1.458,189.941,-157.776,-14.343
-0.655,0.193,-1.418,192.810,-159.180,-16.479
-0.630,0.204,-1.402,190.979,-162.781,-15.076
-0.595,0.212,-1.405,188.965,-169.983,-10.986
-0.555,0.240,-1.387,187.866,-180.176,-6.470
-0.555,0.257,-1.323,188.843,-193.115,-3.113
-0.573,0.279,-1.211,192.566,-205.750,-0.488
-0.596,0.317,-1.083,196.655,-213.928,2.563
-0.606,0.370,-0.957,199.158,-217.346,5.432
-0.605,0.432,-0.847,199.829,-215.942,6.958
-0.599,0.497,-0.764,197.693,-211.548,5.310
-0.579,0.542,-0.706,191.040,-207.214,0.183
-0.555,0.568,-0.681,182.007,-204.041,-6.958
-0.537,0.576,-0.669,173.218,-202.271,-14.404
-0.513,0.598,-0.634,166.992,-201.904,-20.386
-0.485,0.630,-0.556,163.147,-203.796,-24.292
-0.466,0.663,-0.464,158.936,-206.238,-27.832
-0.448,0.692,-0.373,152.222,-207.520,-30.640
-0.410,0.707,-0.308,141.663,-206.360,-33.447
-0.380,0.706,-0.282,129.822,-202.454,-35.461
-0.360,0.708,-0.262,120.544,-196.655,-37.842
-0.310,0.730,-0.228,115.234,-189.392,-40.771
-0.266,0.729,-0.209,111.877,-181.213,-44.250
-0.225,0.701,-0.201,109.558,-173.340,-48.096
-0.204,0.663,-0.194,109.680,-166.687,-50.659
-0.177,0.649,-0.164,111.572,-162.231,-51.208
-0.166,0.641,-0.124,111.877,-159.485,-50.415
-0.160,0.632,-0.067,111.267,-157.837,-48.828
-0.152,0.626,0.021,109.253,-155.945,-46.631
-0.150,0.640,0.136,104.736,-153.076,-44.250
-0.170,0.652,0.235,97.229,-148.560,-44.006
-0.139,0.690,0.300,84.412,-142.334,-46.204
-0.121,0.696,0.319,67.749,-135.193,-49.194
-0.097,0.691,0.332,51.453,-128.845,-51.941
-0.112,0.664,0.338,38.025,-123.230,-53.650
-0.087,0.659,0.354,29.846,-117.676,-57.373
-0.075,0.600,0.391,24.353,-111.389,-62.805
-0.045,0.549,0.453,21.179,-103.271,-66.833
-0.016,0.514,0.510,17.944,-92.041,-67.505
0.006,0.506,0.548,12.085,-78.064,-64.270
0.016,0.514,0.580,4.089,-62.500,-60.364
0.022,0.532,0.589,-3.906,-46.936,-58.105
0.034,0.538,0.566,-12.817,-32.288,-57.739
0.040,0.517,0.542,-22.766,-19.897,-58.228
0.032,0.482,0.545,-30.640,-9.949,-58.838
0.035,0.448,0.548,-36.804,-0.977,-60.364
0.058,0.411,0.557,-42.908,9.399,-60.669
0.062,0.380,0.579,-48.096,21.118,-58.899
0.066,0.365,0.585,-54.077,33.325,-54.688
0.062,0.356,0.583,-61.890,45.715,-49.683
0.041,0.357,0.582,-69.519,58.044,-45.349
0.023,0.361,0.578,-75.867,70.374,-41.992
-0.007,0.356,0.590,-81.665,82.581,-40.161
-0.042,0.344,0.632,-87.097,94.849,-39.063
-0.084,0.343,0.675,-93.201,108.582,-38.086
-0.132,0.310,0.694,-102.234,124.512,-37.109
-0.187,0.268,0.689,-110.901,143.250,-34.668
-0.248,0.253,0.675,-116.455,164.856,-30.762
-0.319,0.257,0.631,-119.019,188.782,-26.672
-0.386,0.269,0.573,-118.591,212.585,-23.315
-0.452,0.277,0.539,-117.737,233.276,-21.423
-0.515,0.295,0.540,-118.225,250.366,-20.386
-0.580,0.330,0.534,-125.244,266.296,-20.386
-0.656,0.355,0.455,-141.235,280.518,-23.376
-0.716,0.381,0.388,-161.255,290.649,-29.968
-0.794,0.364,0.264,-185.730,300.049,-39.246
-0.872,0.325,0.071,-205.627,310.852,-50.537
-0.934,0.309,-0.063,-212.585,319.275,-62.317
-0.995,0.290,-0.191,-215.515,326.294,-74.097
-1.055,0.236,-0.317,-217.468,331.787,-86.060
-1.117,0.169,-0.426,-217.102,333.923,-96.802
-1.151,0.134,-0.508,-214.478,332.581,-105.957
-1.182,0.061,-0.640,-216.919,330.872,-114.380
-1.217,-0.045,-0.809,-223.450,328.308,-121.033
-1.242,-0.159,-0.951,-235.474,326.843,-123.840
-1.299,-0.318,-1.386,-251.160,334.778,-124.146
-1.311,-0.435,-1.895,-241.882,342.590,-123.230
-1.234,-0.540,-2.372,-211.792,339.417,-120.178
-1.053,-0.663,-2.661,-172.424,321.838,-113.892
-0.877,-0.706,-2.677,-126.343,295.105,-98.755
-0.778,-0.622,-2.602,-83.374,268.860,-75.256

0.263,-0.198,-0.192,-10.132,-13.062,-5.859
0.287,-0.242,-0.121,-5.432,-3.784,-0.488
0.309,-0.246,-0.165,-2.625,7.202,6.836
0.294,-0.290,-0.183,-2.136,18.433,15.869
0.300,-0.317,-0.182,-3.052,26.550,26.489
0.288,-0.342,-0.197,-3.540,34.668,38.696
0.247,-0.300,-0.186,1.038,41.138,50.476
0.198,-0.251,-0.139,2.869,46.875,60.303
0.167,-0.242,-0.075,-0.610,55.176,66.772
0.144,-0.279,-0.117,-6.836,67.505,72.205
0.144,-0.286,-0.192,-8.850,77.942,77.637
0.121,-0.291,-0.248,-9.155,84.106,82.764
0.099,-0.303,-0.268,-10.010,86.914,87.769
0.079,-0.313,-0.257,-13.489,89.539,93.506
0.055,-0.294,-0.267,-18.677,94.116,100.220
0.006,-0.265,-0.283,-23.865,100.830,107.178
-0.046,-0.224,-0.320,-26.123,108.948,111.694
-0.093,-0.184,-0.372,-24.170,117.920,113.953
-0.115,-0.149,-0.427,-18.738,126.709,114.746
-0.152,-0.161,-0.479,-10.864,135.315,115.784
-0.188,-0.135,-0.489,3.052,143.555,117.859
-0.222,-0.123,-0.455,16.785,151.978,121.155
-0.315,-0.064,-0.526,25.330,159.851,127.319
-0.353,-0.013,-0.553,27.344,169.861,134.399
-0.390,0.070,-0.615,22.095,174.438,140.747
-0.408,0.127,-0.644,10.864,173.767,144.897
-0.469,0.126,-0.629,-3.906,170.837,147.461
-0.495,0.146,-0.699,-22.461,168.884,150.208
-0.503,0.182,-0.753,-38.574,165.466,152.649
-0.549,0.198,-0.750,-55.420,162.415,154.663
-0.598,0.206,-0.719,-74.219,163.696,155.701
-0.648,0.215,-0.872,-93.140,172.546,156.311
-0.673,0.311,-1.000,-93.750,177.856,155.823
-0.683,0.342,-1.034,-92.468,174.744,151.123
-0.699,0.320,-1.002,-94.055,170.959,145.630
-0.724,0.312,-0.958,-99.121,168.945,142.212
-0.763,0.303,-1.009,-117.004,169.800,139.465
-0.795,0.301,-1.172,-141.907,167.786,136.719
-0.809,0.304,-1.373,-164.856,158.691,133.423
-0.820,0.292,-1.524,-177.185,144.531,128.906
-0.848,0.272,-1.626,-175.720,130.981,123.596
-0.878,0.270,-1.680,-163.818,121.704,118.347
-0.899,0.268,-1.682,-146.240,117.065,111.938
-0.893,0.271,-1.686,-129.578,115.051,103.149
-0.864,0.240,-1.708,-119.873,111.877,92.041
-0.841,0.189,-1.737,-116.028,104.797,80.322
-0.817,0.154,-1.786,-114.441,94.421,70.801
-0.798,0.106,-1.880,-111.877,83.862,64.026
-0.781,0.044,-1.966,-100.037,75.256,58.777
-0.755,-0.041,-2.029,-76.843,69.397,54.993
-0.732,-0.114,-2.054,-45.837,65.552,53.284
-0.726,-0.118,-2.047,-14.893,60.852,53.528
-0.739,-0.100,-2.031,6.531,52.856,54.321
-0.747,-0.099,-2.027,17.456,41.199,53.589
-0.727,-0.105,-2.018,21.973,26.733,50.598
-0.698,-0.131,-1.984,24.353,10.315,44.983
-0.661,-0.175,-1.942,23.804,-6.409,38.086
-0.611,-0.228,-1.897,22.400,-22.583,32.715
-0.563,-0.308,-1.864,23.682,-36.194,29.053
-0.515,-0.422,-1.851,27.954,-47.180,26.428
-0.462,-0.519,-1.831,36.255,-56.885,27.771
-0.431,-0.560,-1.786,48.828,-65.125,33.447
-0.425,-0.582,-1.741,61.401,-71.533,42.542
-0.435,-0.599,-1.702,70.435,-77.393,51.331
-0.444,-0.573,-1.698,75.806,-83.740,59.387
-0.446,-0.548,-1.713,76.965,-91.492,65.491
-0.442,-0.538,-1.695,79.285,-100.891,69.153
-0.459,-0.537,-1.657,84.534,-110.474,71.106
-0.397,-0.536,-1.610,88.562,-118.774,72.754
-0.393,-0.529,-1.579,91.919,-125.183,74.768
-0.409,-0.537,-1.582,94.055,-130.798,76.111
-0.416,-0.512,-1.581,95.459,-137.512,78.735
-0.405,-0.513,-1.577,97.046,-145.264,82.214
-0.387,-0.527,-1.575,97.229,-152.954,86.060
-0.387,-0.535,-1.569,95.093,-161.316,91.980
-0.406,-0.489,-1.556,90.027,-171.631,99.548
-0.421,-0.399,-1.510,83.801,-183.167,106.506
-0.436,-0.324,-1.455,79.712,-193.420,109.741
-0.442,-0.274,-1.402,80.200,-201.233,108.582
-0.427,-0.253,-1.341,81.787,-205.994,104.492
-0.404,-0.232,-1.306,82.581,-208.191,100.403
-0.370,-0.231,-1.294,81.665,-209.167,98.633
-0.339,-0.232,-1.276,82.458,-209.900,98.999
-0.313,-0.241,-1.222,86.182,-210.815,100.708
-0.299,-0.204,-1.137,89.661,-211.975,104.065
-0.300,-0.135,-1.074,88.928,-212.830,107.849
-0.297,-0.051,-1.006,83.557,-214.600,109.741
-0.288,-0.002,-0.962,75.806,-216.858,107.727
-0.258,-0.006,-0.940,67.810,-218.750,101.929
-0.208,-0.013,-0.884,63.110,-220.947,96.863
-0.176,-0.001,-0.811,62.988,-221.558,94.299
-0.158,0.005,-0.755,63.782,-219.971,95.154
-0.135,0.018,-0.697,64.209,-216.858,98.206
-0.129,0.076,-0.614,67.810,-212.158,101.990
-0.135,0.146,-0.518,71.960,-205.933,104.065
-0.133,0.208,-0.433,73.303,-198.730,102.966
-0.118,0.262,-0.366,71.533,-190.186,98.389
-0.095,0.294,-0.309,67.993,-181.335,91.431
-0.067,0.321,-0.242,64.392,-172.485,84.290
-0.038,0.352,-0.186,61.462,-163.513,77.698
-0.020,0.380,-0.153,57.617,-154.114,72.510
-0.006,0.420,-0.128,54.565,-144.287,68.237
0.007,0.459,-0.129,51.941,-133.911,63.232
0.031,0.466,-0.135,50.171,-123.413,56.580
0.055,0.459,-0.102,50.598,-113.708,49.316
0.086,0.466,-0.067,52.246,-102.966,43.274
0.105,0.478,-0.052,51.819,-91.309,38.696
0.116,0.490,-0.042,50.476,-80.566,35.339
0.120,0.505,-0.025,48.523,-70.679,31.372
0.131,0.521,-0.006,46.082,-61.768,26.855
0.139,0.527,0.014,41.931,-53.589,21.851
0.139,0.540,0.027,36.621,-45.837,17.578
0.135,0.567,0.027,29.846,-38.269,13.611
0.122,0.593,0.032,22.583,-31.250,9.277
0.109,0.616,0.035,15.198,-24.597,3.906
0.103,0.640,0.068,9.277,-18.616,-2.502
0.097,0.666,0.098,1.953,-12.268,-8.545
0.085,0.690,0.117,-6.714,-5.371,-14.832
0.070,0.715,0.116,-15.015,1.770,-20.935
0.046,0.731,0.118,-21.912,9.583,-27.283
0.009,0.761,0.130,-26.855,18.555,-33.508
-0.046,0.813,0.125,-31.799,28.564,-39.551
-0.112,0.860,0.091,-37.598,39.001,-47.302
-0.183,0.908,0.057,-41.321,49.988,-57.190
-0.257,0.958,0.018,-42.664,61.584,-70.129
-0.322,0.996,-0.002,-43.030,73.792,-85.632
-0.392,1.012,-0.049,-44.250,87.402,-102.722
-0.467,1.038,-0.078,-42.908,100.830,-122.559
-0.530,1.050,-0.103,-43.030,113.403,-146.484
-0.594,1.014,-0.137,-47.607,125.488,-173.828
-0.639,0.933,-0.184,-55.115,136.169,-203.918
-0.663,0.786,-0.204,-64.880,143.127,-234.375
-0.677,0.650,-0.238,-75.195,149.170,-261.047
-0.698,0.493,-0.304,-84.351,157.288,-282.104
-0.725,0.341,-0.391,-84.656,168.213,-299.500
-0.738,0.207,-0.420,-75.623,178.162,-314.148
-0.755,0.052,-0.461,-68.359,189.575,-325.500
-0.778,-0.076,-0.528,-63.110,200.989,-331.726
-0.794,-0.178,-0.624,-60.547,209.717,-334.290
-0.812,-0.277,-0.743,-61.951,212.891,-335.327
-0.814,-0.405,-0.842,-65.002,209.229,-334.167
-0.804,-0.554,-0.886,-64.575,202.515,-331.787
-0.789,-0.684,-0.902,-59.570,198.181,-327.881
-0.803,-0.792,-0.914,-52.795,198.120,-322.754
-0.826,-0.898,-0.957,-47.852,201.721,-318.665
-0.814,-1.054,-1.046,-47.241,205.994,-316.101
-0.793,-1.253,-1.175,-48.340,208.374,-313.599
-0.733,-1.456,-1.348,-51.575,206.665,-307.495
-0.634,-1.642,-1.569,-57.068,200.745,-294.739

0.240,0.012,-0.290,-57.373,12.451,12.207
0.307,-0.151,-0.342,-53.284,27.100,7.874
0.359,-0.186,-0.403,-36.621,37.231,9.094
0.344,-0.201,-0.388,-19.470,46.021,15.930
0.310,-0.181,-0.366,-7.568,54.199,23.376
0.284,-0.150,-0.341,0.427,61.646,28.564
0.255,-0.155,-0.329,3.540,67.017,31.250
0.240,-0.196,-0.322,3.723,70.618,32.227
0.246,-0.262,-0.330,3.052,72.693,34.241
0.252,-0.336,-0.300,0.366,73.608,39.368
0.224,-0.385,-0.243,-3.357,75.989,47.913
0.175,-0.379,-0.208,-7.629,81.543,57.800
0.118,-0.350,-0.198,-11.353,89.478,66.406
0.069,-0.315,-0.193,-14.893,97.595,71.045
0.039,-0.281,-0.180,-16.663,105.713,72.937
0.019,-0.276,-0.156,-16.602,114.319,73.242
0.005,-0.305,-0.153,-15.137,124.207,73.547
0.010,-0.342,-0.140,-9.399,135.925,76.111
-0.004,-0.372,-0.105,1.221,148.743,81.055
-0.035,-0.365,-0.067,13.672,163.147,88.196
-0.075,-0.345,-0.055,22.888,177.368,96.436
-0.125,-0.334,-0.074,24.963,189.941,104.370
-0.159,-0.361,-0.028,22.156,199.402,111.938
-0.252,-0.321,-0.194,18.982,207.886,119.873
-0.310,-0.338,-0.200,17.456,217.468,128.357
-0.382,-0.312,-0.296,21.606,228.577,138.733
-0.478,-0.218,-0.337,31.189,237.732,149.536
-0.659,-0.127,-0.309,25.269,247.375,161.194
-0.781,-0.049,-0.548,-1.831,263.977,176.147
-0.888,0.118,-0.781,-15.137,270.630,188.782
-0.979,0.257,-1.053,-36.377,264.709,194.763
-1.094,0.361,-1.277,-57.129,249.939,197.266
-1.201,0.482,-1.391,-72.998,230.835,198.975
-1.275,0.563,-1.453,-85.327,218.140,194.885
-1.345,0.608,-1.551,-85.022,215.515,182.556
-1.381,0.648,-1.647,-71.411,216.125,165.833
-1.375,0.698,-1.777,-58.533,212.830,148.560
-1.337,0.708,-1.898,-52.917,204.102,132.812
-1.297,0.656,-1.982,-45.593,191.406,118.347
-1.226,0.615,-2.003,-31.677,175.964,105.286
-1.146,0.592,-1.993,-18.127,160.706,96.008
-1.078,0.549,-2.012,-9.827,146.362,88.989
-1.022,0.534,-1.981,-2.747,129.395,83.374
-0.982,0.496,-1.963,0.671,112.366,77.942
-0.966,0.473,-1.969,3.906,96.375,73.792
-0.942,0.495,-1.971,6.165,81.116,71.045
-0.916,0.511,-1.960,8.911,66.040,66.467
-0.897,0.500,-1.939,15.076,51.331,57.800
-0.870,0.470,-1.901,24.048,38.269,47.424
-0.831,0.432,-1.837,34.668,26.733,37.415
-0.794,0.393,-1.774,44.006,17.395,28.076
-0.771,0.351,-1.751,50.720,8.972,20.203
-0.738,0.303,-1.732,55.420,0.061,14.648
-0.704,0.252,-1.681,59.998,-10.071,10.132
-0.679,0.203,-1.631,64.148,-20.813,7.080
-0.661,0.157,-1.595,65.552,-31.128,5.310
-0.646,0.104,-1.601,63.782,-40.955,4.700
-0.631,0.051,-1.645,61.096,-51.208,5.188
-0.621,0.011,-1.691,61.768,-62.500,7.385
-0.622,0.002,-1.727,67.261,-74.463,10.559
-0.638,0.010,-1.739,77.759,-86.548,13.550
-0.659,-0.005,-1.685,91.003,-96.924,15.503
-0.673,-0.039,-1.638,103.149,-103.516,16.663
-0.672,-0.053,-1.635,112.732,-105.408,19.226
-0.670,-0.047,-1.672,122.131,-105.835,22.644
-0.664,-0.040,-1.727,131.653,-107.971,25.391
-0.649,-0.008,-1.754,143.372,-112.610,27.222
-0.645,0.018,-1.745,157.532,-120.117,27.283
-0.649,0.020,-1.717,171.509,-128.601,26.611
-0.637,0.033,-1.693,184.204,-136.353,27.710
-0.624,0.078,-1.670,193.909,-144.653,29.480
-0.626,0.112,-1.639,202.087,-154.114,30.334
-0.613,0.120,-1.582,209.961,-163.818,29.663
-0.603,0.135,-1.509,218.994,-171.448,28.748
-0.586,0.158,-1.426,227.539,-176.270,27.649
-0.557,0.188,-1.332,233.398,-180.176,25.696
-0.526,0.209,-1.246,236.755,-183.533,22.766
-0.486,0.221,-1.171,236.084,-186.401,20.935
-0.467,0.238,-1.082,234.314,-188.232,20.508
-0.462,0.296,-0.989,230.042,-188.782,21.057
-0.460,0.375,-0.910,220.703,-189.026,21.057
-0.448,0.427,-0.859,207.764,-189.880,18.066
-0.431,0.448,-0.821,196.228,-191.101,11.841
-0.405,0.463,-0.764,190.918,-192.261,4.089
-0.395,0.459,-0.679,192.078,-192.627,-3.418
-0.393,0.467,-0.572,196.594,-191.711,-9.949
-0.385,0.471,-0.458,200.867,-189.331,-18.311
-0.379,0.461,-0.337,201.660,-185.852,-28.198
-0.359,0.457,-0.214,199.341,-181.458,-37.415
-0.337,0.460,-0.121,190.613,-175.903,-44.250
-0.308,0.475,-0.052,175.354,-170.532,-48.401
-0.282,0.474,-0.005,157.104,-165.833,-51.147
-0.255,0.461,0.023,139.587,-161.133,-53.345
-0.216,0.446,0.051,124.939,-156.067,-54.871
-0.186,0.433,0.080,113.525,-151.062,-55.603
-0.162,0.429,0.113,104.004,-146.179,-55.725
-0.145,0.417,0.149,95.337,-141.296,-54.749
-0.127,0.405,0.188,87.952,-135.864,-52.429
-0.108,0.396,0.232,83.374,-128.845,-48.706
-0.090,0.395,0.283,80.872,-119.141,-44.678
-0.079,0.393,0.347,79.163,-106.995,-40.344
-0.068,0.407,0.407,75.500,-93.201,-35.706
-0.048,0.440,0.430,68.115,-78.491,-31.067
-0.036,0.467,0.417,58.594,-64.392,-27.100
-0.030,0.482,0.399,49.194,-52.551,-24.841
-0.024,0.488,0.387,39.978,-43.396,-23.621
-0.013,0.496,0.382,31.860,-36.011,-23.315
-0.019,0.475,0.388,26.184,-30.396,-24.048
-0.010,0.472,0.403,21.790,-24.719,-24.109
-0.007,0.454,0.442,17.822,-18.616,-23.193
-0.009,0.433,0.497,12.939,-11.169,-21.301
-0.009,0.428,0.544,5.981,-2.563,-17.090
-0.018,0.439,0.570,-3.174,7.812,-10.925
-0.039,0.463,0.572,-13.611,19.470,-4.333
-0.066,0.496,0.566,-24.048,30.884,1.343
-0.097,0.530,0.555,-31.799,41.870,5.676
-0.136,0.567,0.568,-37.720,52.551,7.751
-0.179,0.597,0.597,-43.884,63.782,7.996
-0.218,0.617,0.616,-52.185,76.782,6.409
-0.242,0.636,0.610,-62.134,91.614,3.845
-0.266,0.641,0.592,-72.632,108.032,0.854
-0.289,0.635,0.578,-82.336,125.061,-2.197
-0.319,0.630,0.539,-92.468,143.005,-5.859
-0.338,0.609,0.502,-103.394,160.889,-10.803
-0.366,0.568,0.439,-114.502,178.772,-17.151
-0.391,0.526,0.382,-122.314,195.801,-25.574
-0.417,0.467,0.337,-129.333,210.937,-34.607
-0.436,0.409,0.287,-138.916,224.487,-43.213
-0.456,0.364,0.227,-151.428,235.352,-50.659
-0.484,0.320,0.171,-166.321,243.347,-57.373
-0.533,0.272,0.134,-182.739,249.084,-64.392
-0.585,0.218,0.044,-202.942,253.479,-71.594
-0.613,0.153,-0.108,-226.318,254.639,-77.454
-0.625,0.076,-0.258,-247.498,250.244,-81.909
-0.640,0.015,-0.353,-259.827,241.577,-85.205
-0.669,-0.017,-0.376,-264.343,230.896,-88.379
-0.710,-0.048,-0.349,-267.761,220.886,-92.163
-0.773,-0.103,-0.339,-275.879,213.806,-97.046
-0.862,-0.174,-0.390,-289.246,209.839,-102.112
-0.943,-0.219,-0.506,-305.664,209.167,-107.605
-1.002,-0.295,-0.683,-317.993,212.402,-114.319
-1.035,-0.417,-0.889,-319.641,219.788,-123.352
-1.070,-0.553,-1.122,-307.678,230.042,-132.080
-1.086,-0.712,-1.423,-286.865,240.417,-137.207
-1.041,-0.944,-1.825,-265.442,249.146,-136.536
-0.932,-1.189,-2.252,-244.141,250.244,-126.465
-0.804,-1.275,-2.555,-211.060,240.845,-104.553
-0.714,-1.116,-2.710,-162.170,220.703,-75.012
-0.662,-0.817,-2.680,-116.272,194.336,-45.532

0.341,-0.144,-0.056,-85.266,-1.282,18.066
0.347,-0.184,-0.054,-81.787,8.728,12.146
0.368,-0.186,-0.092,-73.120,13.855,5.920
0.317,-0.272,-0.035,-66.223,19.653,1.221
0.299,-0.305,0.049,-61.218,27.100,-1.038
0.280,-0.313,0.084,-56.885,38.574,-1.587
0.249,-0.338,0.074,-56.030,51.758,-2.258
0.233,-0.365,0.040,-55.420,63.721,-3.906
0.232,-0.410,-0.011,-53.467,72.449,-5.676
0.231,-0.469,-0.007,-52.795,77.454,-6.592
0.198,-0.486,0.056,-53.650,81.665,-6.348
0.134,-0.470,0.110,-57.068,88.867,-5.676
0.063,-0.432,0.141,-63.721,98.450,-7.568
0.001,-0.398,0.168,-72.388,109.131,-13.916
-0.038,-0.413,0.157,-81.787,120.544,-23.315
-0.054,-0.454,0.103,-89.233,132.080,-33.325
-0.054,-0.500,0.019,-92.590,142.944,-40.649
-0.064,-0.541,-0.068,-90.637,152.771,-44.739
-0.079,-0.550,-0.146,-83.191,161.255,-45.593
-0.113,-0.528,-0.204,-72.083,168.213,-44.739
-0.165,-0.502,-0.249,-57.251,174.805,-44.006
-0.225,-0.438,-0.299,-40.710,182.495,-44.189
-0.272,-0.416,-0.298,-23.987,193.237,-45.776
-0.293,-0.379,-0.338,-10.010,202.148,-48.645
-0.333,-0.356,-0.326,-3.174,210.449,-52.795
-0.362,-0.369,-0.370,-2.197,220.032,-57.800
-0.391,-0.353,-0.414,-1.282,226.868,-61.768
-0.450,-0.375,-0.501,-10.681,231.873,-65.491
-0.479,-0.454,-0.646,-29.114,236.450,-67.932
-0.461,-0.516,-0.778,-42.786,239.258,-67.871
-0.460,-0.569,-0.842,-51.086,240.967,-66.528
-0.478,-0.613,-0.942,-53.345,243.774,-65.491
-0.491,-0.613,-0.976,-50.415,241.882,-64.148
-0.469,-0.646,-1.027,-54.382,238.892,-61.707
-0.460,-0.685,-1.062,-58.289,233.704,-58.533
-0.473,-0.701,-1.117,-63.171,225.891,-55.176
-0.489,-0.726,-1.213,-71.289,217.468,-51.636
-0.502,-0.787,-1.317,-77.026,209.045,-48.523
-0.532,-0.853,-1.372,-74.890,199.036,-45.654
-0.572,-0.879,-1.391,-71.350,187.256,-42.480
-0.579,-0.887,-1.390,-76.111,174.561,-39.612
-0.579,-0.910,-1.407,-85.510,162.476,-38.513
-0.612,-0.947,-1.505,-94.055,150.574,-38.513
-0.623,-0.995,-1.643,-99.792,137.268,-38.879
-0.585,-1.041,-1.724,-95.581,123.169,-40.161
-0.544,-1.096,-1.760,-78.491,111.023,-42.542
-0.500,-1.132,-1.740,-52.673,102.356,-44.189
-0.461,-1.184,-1.693,-26.855,97.473,-42.725
-0.445,-1.222,-1.650,-2.747,94.482,-38.513
-0.443,-1.240,-1.601,16.846,90.454,-31.921
-0.436,-1.236,-1.577,24.231,83.618,-23.315
-0.428,-1.227,-1.572,20.447,73.059,-15.259
-0.413,-1.224,-1.563,11.719,58.899,-9.094
-0.391,-1.219,-1.548,4.211,42.969,-4.333
-0.368,-1.226,-1.522,-0.854,27.283,0.183
-0.341,-1.236,-1.481,-2.930,13.611,5.432
-0.318,-1.245,-1.438,0.671,2.136,11.047
-0.304,-1.271,-1.392,7.935,-6.409,17.395
-0.284,-1.317,-1.330,19.470,-12.817,24.231
-0.259,-1.340,-1.257,34.546,-17.151,32.471
-0.237,-1.355,-1.202,50.110,-18.738,42.297
-0.228,-1.373,-1.180,64.331,-19.104,53.467
-0.224,-1.397,-1.166,76.721,-20.935,66.345
-0.225,-1.444,-1.134,88.684,-24.780,79.285
-0.245,-1.468,-1.093,103.210,-30.396,91.553
-0.260,-1.474,-1.054,116.089,-35.400,103.943
-0.255,-1.484,-1.032,125.122,-39.429,115.417
-0.249,-1.473,-1.003,134.460,-42.175,125.549
-0.260,-1.448,-1.014,145.081,-43.701,136.353
-0.277,-1.405,-1.074,154.785,-45.166,148.682
-0.298,-1.373,-1.151,165.283,-48.523,161.682
-0.321,-1.333,-1.193,179.932,-54.077,174.438
-0.345,-1.278,-1.197,198.059,-60.486,185.364
-0.371,-1.220,-1.163,216.675,-66.162,192.749
-0.400,-1.132,-1.126,234.131,-69.153,197.266
-0.408,-1.019,-1.127,245.667,-70.190,198.914
-0.401,-0.927,-1.185,250.366,-71.594,197.998
-0.370,-0.857,-1.258,252.441,-76.599,194.763
-0.329,-0.801,-1.293,258.362,-85.571,190.491
-0.297,-0.744,-1.290,270.264,-95.825,186.340
-0.258,-0.697,-1.281,283.203,-105.469,182.922
-0.226,-0.638,-1.247,294.006,-114.380,180.969
-0.230,-0.554,-1.198,304.382,-123.230,179.626
-0.248,-0.439,-1.153,312.378,-131.653,176.880
-0.250,-0.302,-1.113,317.139,-139.832,170.776
-0.233,-0.201,-1.070,320.068,-147.339,161.072
-0.203,-0.148,-1.021,320.618,-153.625,148.254
-0.178,-0.119,-0.971,318.726,-158.020,135.437
-0.152,-0.089,-0.910,313.904,-160.278,124.939
-0.126,-0.064,-0.834,307.495,-160.706,117.310
-0.112,-0.034,-0.744,301.758,-159.180,111.450
-0.095,0.037,-0.634,298.828,-156.372,107.422
-0.084,0.096,-0.546,294.128,-152.649,103.821
-0.083,0.158,-0.470,286.743,-148.926,100.159
-0.073,0.220,-0.388,278.137,-145.813,95.642
-0.063,0.283,-0.297,268.555,-143.372,90.027
-0.057,0.335,-0.214,257.568,-141.296,83.618
-0.058,0.359,-0.151,244.080,-138.794,77.698
-0.045,0.387,-0.107,226.440,-136.169,72.449
-0.035,0.423,-0.062,207.275,-133.789,68.054
-0.033,0.452,-0.016,189.148,-131.104,63.538
-0.029,0.476,0.029,172.607,-127.197,58.838
-0.022,0.494,0.075,157.471,-121.216,54.382
-0.012,0.507,0.107,143.738,-114.014,50.781
-0.000,0.518,0.129,131.775,-106.201,47.607
0.010,0.533,0.155,122.070,-98.267,44.678
0.016,0.553,0.189,114.441,-90.820,41.992
0.025,0.573,0.213,105.957,-83.191,39.429
0.035,0.587,0.227,96.069,-75.439,37.109
0.040,0.594,0.244,86.853,-68.176,34.485
0.042,0.602,0.271,78.918,-61.035,31.860
0.038,0.616,0.298,70.923,-53.894,29.114
0.032,0.630,0.321,61.035,-46.753,26.062
0.029,0.639,0.340,48.889,-40.405,22.156
0.030,0.645,0.351,36.499,-35.339,17.944
0.032,0.643,0.367,24.475,-31.128,13.977
0.028,0.642,0.385,13.123,-26.550,10.681
0.023,0.637,0.408,3.662,-20.264,8.667
0.016,0.632,0.444,-3.601,-12.268,7.263
-0.001,0.631,0.478,-9.338,-2.441,7.263
-0.026,0.637,0.502,-14.404,10.193,9.460
-0.056,0.665,0.516,-19.653,25.269,13.367
-0.104,0.719,0.531,-24.292,41.382,17.822
-0.167,0.782,0.548,-30.273,58.472,20.996
-0.224,0.861,0.536,-38.696,76.111,21.423
-0.287,0.913,0.507,-47.668,93.445,17.334
-0.348,0.945,0.481,-55.786,109.802,8.179
-0.393,0.952,0.432,-64.026,125.610,-3.967
-0.425,0.930,0.377,-71.838,141.113,-17.639
-0.453,0.877,0.333,-78.918,155.823,-32.593
-0.469,0.822,0.309,-84.656,169.250,-46.692
-0.482,0.773,0.302,-91.736,182.068,-59.265
-0.495,0.721,0.297,-104.614,194.092,-70.740
-0.519,0.673,0.293,-122.803,205.322,-80.750
-0.566,0.648,0.250,-146.118,215.515,-90.271
-0.613,0.625,0.147,-175.110,223.938,-100.830
-0.662,0.575,0.020,-204.590,229.492,-114.014
-0.704,0.502,-0.122,-227.295,231.445,-130.310
-0.732,0.421,-0.248,-239.380,231.689,-147.156
-0.753,0.323,-0.319,-240.662,231.995,-164.062
-0.769,0.203,-0.388,-236.206,233.398,-179.687
-0.748,0.066,-0.482,-231.567,234.863,-191.162
-0.714,-0.096,-0.573,-224.915,235.657,-195.068
-0.703,-0.228,-0.645,-213.684,235.657,-189.880
-0.726,-0.278,-0.704,-200.073,237.671,-176.270
-0.769,-0.236,-0.762,-188.049,243.347,-158.997
-0.826,-0.181,-0.833,-180.176,252.747,-145.447
-0.861,-0.146,-0.913,-175.049,262.817,-141.235
-0.873,-0.171,-1.050,-172.424,270.630,-147.705

0.143,0.007,-0.006,-43.213,63.354,34.180
0.211,-0.082,0.011,-38.452,83.130,17.029
0.265,-0.178,-0.054,-21.973,101.135,0.977
0.292,-0.320,-0.088,-5.310,116.089,-6.653
0.304,-0.387,-0.113,11.353,128.906,-6.287
0.293,-0.411,-0.123,25.330,139.221,-1.587
0.256,-0.432,-0.070,33.142,145.691,5.249
0.215,-0.441,0.005,32.837,150.452,11.719
0.172,-0.456,0.036,23.315,155.945,17.761
0.114,-0.471,0.018,7.812,161.804,22.156
0.039,-0.464,0.009,-8.301,166.382,23.926
-0.041,-0.450,0.026,-21.729,171.265,22.644
-0.110,-0.428,0.018,-30.579,180.603,19.348
-0.168,-0.417,-0.024,-33.081,195.679,15.503
-0.219,-0.409,-0.108,-27.527,213.867,12.451
-0.254,-0.386,-0.227,-14.648,232.178,11.902
-0.268,-0.349,-0.355,3.723,247.498,13.733
-0.281,-0.276,-0.456,27.893,258.118,17.883
-0.298,-0.184,-0.514,52.856,264.893,23.376
-0.326,-0.083,-0.529,77.087,269.714,29.236
-0.367,-0.011,-0.502,99.182,274.841,34.058
-0.396,0.037,-0.395,116.516,281.616,37.903
-0.488,0.103,-0.457,122.437,288.452,42.603
-0.525,0.120,-0.497,118.347,296.082,47.791
-0.605,0.186,-0.607,107.483,296.509,52.307
-0.707,0.248,-0.740,85.876,292.725,55.969
-0.780,0.251,-0.911,57.129,288.757,57.861
-0.806,0.250,-1.027,32.593,286.072,58.105
-0.811,0.226,-1.216,14.954,285.217,57.129
-0.796,0.203,-1.315,12.634,279.175,55.542
-0.780,0.168,-1.415,10.620,269.226,54.626
-0.794,0.156,-1.511,7.324,257.263,57.922
-0.830,0.193,-1.662,1.953,247.009,65.369
-0.862,0.224,-1.901,-1.099,239.197,72.388
-0.872,0.233,-2.079,12.878,227.966,77.271
-0.859,0.267,-2.070,46.875,212.830,78.979
-0.853,0.336,-1.960,85.022,199.036,78.674
-0.891,0.383,-1.893,109.192,188.965,76.721
-0.931,0.424,-1.898,116.028,178.833,73.486
-0.938,0.461,-1.947,110.535,165.649,69.031
-0.917,0.464,-2.010,100.647,150.024,63.293
-0.870,0.444,-2.067,92.590,132.202,56.335
-0.812,0.434,-2.066,90.271,112.732,50.537
-0.781,0.394,-2.067,89.722,94.666,46.875
-0.769,0.376,-2.042,92.529,77.637,46.692
-0.769,0.393,-2.006,94.177,60.852,49.072
-0.778,0.426,-1.941,94.604,44.189,50.537
-0.774,0.449,-1.871,94.360,29.602,48.218
-0.762,0.428,-1.799,94.666,16.846,41.504
-0.736,0.398,-1.715,97.412,5.188,32.593
-0.698,0.375,-1.645,102.173,-3.662,23.254
-0.671,0.344,-1.599,105.713,-10.132,14.648
-0.661,0.295,-1.549,108.459,-17.456,7.690
-0.640,0.265,-1.503,110.657,-25.696,3.296
-0.609,0.245,-1.469,111.267,-33.447,1.282
-0.599,0.211,-1.431,111.450,-41.199,0.061
-0.591,0.192,-1.385,113.037,-48.950,-0.122
-0.579,0.192,-1.357,114.624,-56.641,1.160
-0.582,0.192,-1.345,115.662,-64.453,3.296
-0.598,0.207,-1.330,117.188,-72.693,6.042
-0.612,0.239,-1.302,119.995,-81.238,8.911
-0.629,0.277,-1.247,124.939,-89.233,9.705
-0.645,0.323,-1.183,131.348,-95.215,8.179
-0.651,0.361,-1.132,137.146,-98.145,4.944
-0.654,0.381,-1.107,142.151,-98.755,0.000
-0.644,0.386,-1.100,146.973,-96.985,-4.395
-0.624,0.384,-1.112,152.893,-94.055,-8.301
-0.599,0.381,-1.128,161.072,-90.820,-12.207
-0.578,0.393,-1.130,168.884,-88.135,-15.015
-0.550,0.426,-1.122,174.133,-87.341,-16.541
-0.526,0.453,-1.129,176.086,-87.952,-18.005
-0.494,0.448,-1.149,175.720,-90.271,-18.799
-0.463,0.425,-1.160,176.392,-94.055,-17.944
-0.451,0.427,-1.139,180.237,-98.206,-14.893
-0.450,0.451,-1.094,185.608,-100.952,-10.498
-0.438,0.503,-1.056,189.697,-101.685,-6.653
-0.408,0.549,-1.043,190.491,-101.013,-4.211
-0.387,0.574,-1.030,190.552,-100.220,-2.502
-0.384,0.597,-1.010,193.787,-99.976,-2.075
-0.369,0.642,-0.961,199.036,-100.647,-2.808
-0.349,0.664,-0.903,203.613,-100.891,-3.845
-0.333,0.669,-0.852,205.444,-100.403,-4.700
-0.321,0.699,-0.800,204.468,-100.037,-4.761
-0.319,0.738,-0.751,200.195,-101.440,-5.005
-0.320,0.762,-0.704,191.528,-104.614,-6.042
-0.321,0.809,-0.650,180.298,-109.253,-7.324
-0.328,0.868,-0.609,168.152,-114.319,-10.681
-0.312,0.870,-0.574,155.273,-118.469,-17.212
-0.298,0.888,-0.546,144.653,-122.009,-24.719
-0.286,0.875,-0.500,137.085,-125.549,-31.433
-0.275,0.847,-0.449,133.301,-126.709,-36.743
-0.257,0.837,-0.411,132.874,-124.756,-39.429
-0.236,0.793,-0.417,135.559,-120.178,-40.588
-0.196,0.756,-0.404,140.991,-115.662,-39.856
-0.170,0.757,-0.381,148.621,-111.633,-37.231
-0.160,0.756,-0.334,157.532,-107.849,-34.241
-0.157,0.798,-0.253,163.574,-104.431,-32.104
-0.156,0.852,-0.180,163.086,-101.196,-31.982
-0.157,0.865,-0.170,153.442,-98.083,-35.156
-0.158,0.850,-0.196,138.672,-97.107,-39.307
-0.153,0.840,-0.198,125.732,-99.304,-43.213
-0.141,0.838,-0.195,115.906,-103.210,-46.692
-0.131,0.828,-0.173,109.253,-108.032,-50.659
-0.134,0.777,-0.138,107.117,-112.427,-54.504
-0.147,0.711,-0.092,109.558,-114.685,-57.861
-0.089,0.700,-0.006,114.685,-113.708,-60.242
-0.114,0.655,0.051,116.760,-108.093,-60.669
-0.073,0.650,0.107,117.493,-100.037,-59.692
-0.064,0.655,0.143,115.234,-91.553,-58.289
-0.090,0.629,0.167,112.305,-83.801,-57.922
-0.047,0.646,0.192,107.178,-77.209,-58.838
-0.084,0.604,0.202,100.525,-71.838,-61.401
-0.049,0.585,0.236,94.421,-67.566,-65.674
-0.059,0.513,0.236,86.609,-64.087,-70.557
-0.011,0.458,0.243,81.299,-61.401,-74.463
0.012,0.389,0.270,77.148,-58.960,-76.599
0.035,0.336,0.319,73.242,-56.824,-75.439
0.051,0.283,0.381,67.505,-54.138,-72.388
0.094,0.232,0.461,60.303,-50.171,-67.871
0.056,0.159,0.508,49.866,-44.250,-59.937
0.054,0.117,0.566,40.833,-37.476,-50.293
0.041,0.077,0.646,34.790,-29.846,-43.213
0.027,0.046,0.735,31.006,-19.958,-36.072
0.023,0.010,0.827,24.536,-8.301,-27.771
0.005,-0.022,0.900,14.404,5.432,-17.639
-0.024,-0.048,0.940,1.770,21.545,-5.676
-0.053,-0.065,0.954,-10.437,37.659,7.385
-0.092,-0.067,0.952,-21.301,54.688,20.203
-0.131,-0.065,0.964,-30.762,72.021,31.250
-0.166,-0.066,0.984,-41.199,90.088,39.673
-0.196,-0.072,0.984,-54.138,108.826,46.570
-0.237,-0.099,0.951,-69.580,127.380,53.772
-0.265,-0.124,0.900,-85.144,145.264,61.951
-0.301,-0.143,0.841,-99.243,161.682,70.374
-0.339,-0.159,0.790,-110.352,177.124,78.796
-0.383,-0.179,0.758,-119.263,191.650,86.731
-0.429,-0.199,0.729,-127.502,206.177,94.666
-0.476,-0.217,0.688,-137.451,220.276,103.821
-0.530,-0.238,0.654,-149.841,233.154,114.563
-0.602,-0.268,0.665,-163.696,245.239,126.770
-0.712,-0.272,0.655,-182.190,259.155,141.052
-0.847,-0.277,0.504,-208.008,274.536,156.494
-0.942,-0.229,0.368,-230.713,284.424,173.157
-1.099,-0.188,0.205,-250.732,290.466,188.477
-1.236,-0.141,0.057,-260.559,296.204,198.914
-1.392,-0.130,0.040,-256.165,302.124,204.956
-1.531,-0.055,0.016,-249.329,312.317,209.473
-1.651,0.075,-0.056,-249.939,324.585,211.304
-1.772,0.218,-0.266,-269.104,338.074,210.449

0.173,0.066,-0.202,-21.179,7.263,16.052
0.157,0.053,-0.194,-20.996,13.000,25.696
0.193,0.133,-0.208,-19.104,14.709,32.349
0.130,0.156,-0.199,-20.203,17.456,36.499
0.113,0.164,-0.200,-27.344,20.203,38.452
0.108,0.083,-0.267,-35.950,24.231,39.734
0.119,-0.022,-0.318,-37.109,27.832,42.053
0.129,-0.082,-0.386,-34.851,31.311,48.950
0.120,-0.139,-0.451,-31.982,33.569,59.265
0.121,-0.191,-0.493,-28.442,33.325,71.045
0.102,-0.226,-0.488,-24.658,31.006,83.557
0.077,-0.232,-0.454,-23.315,28.748,96.985
0.021,-0.253,-0.451,-25.330,28.809,110.657
-0.024,-0.239,-0.444,-24.902,30.396,122.253
-0.069,-0.214,-0.417,-21.423,32.288,131.653
-0.130,-0.203,-0.391,-16.785,36.316,140.442
-0.181,-0.183,-0.368,-9.338,42.480,148.926
-0.236,-0.161,-0.342,3.418,51.697,158.020
-0.288,-0.134,-0.306,19.653,62.134,168.518
-0.345,-0.083,-0.266,34.729,71.106,180.664
-0.406,-0.001,-0.246,43.823,76.965,194.519
-0.461,0.093,-0.244,44.006,78.979,207.153
-0.509,0.172,-0.240,36.255,77.637,217.163
-0.556,0.231,-0.230,20.203,74.402,224.182
-0.581,0.266,-0.280,-3.784,72.083,230.042
-0.629,0.289,-0.418,-28.015,70.618,234.802
-0.627,0.299,-0.487,-48.645,67.627,240.356
-0.654,0.313,-0.595,-54.810,63.721,246.094
-0.725,0.360,-0.534,-48.828,63.599,254.333
-0.832,0.358,-0.571,-47.852,75.745,265.076
-0.910,0.487,-0.665,-30.212,92.163,275.146
-0.986,0.653,-0.739,-8.484,98.938,279.236
-1.087,0.781,-0.810,-0.854,96.924,278.992
-1.178,0.918,-0.792,-3.418,88.867,279.236
-1.266,1.047,-0.847,-19.531,82.642,279.175
-1.356,1.183,-1.024,-38.757,77.637,275.574
-1.430,1.334,-1.193,-51.270,67.444,268.005
-1.466,1.455,-1.284,-56.885,53.040,255.615
-1.475,1.498,-1.337,-57.190,39.368,237.732
-1.465,1.503,-1.337,-51.392,30.518,216.980
-1.437,1.511,-1.317,-40.039,26.733,196.899
-1.396,1.518,-1.332,-28.503,26.428,177.063
-1.355,1.521,-1.355,-18.982,26.245,157.776
-1.318,1.510,-1.368,-10.742,23.926,138.855
-1.278,1.467,-1.378,-4.700,19.043,119.873
-1.240,1.431,-1.392,-2.380,12.329,102.783
-1.195,1.406,-1.412,-2.502,4.333,88.135
-1.137,1.365,-1.419,-2.869,-5.005,74.219
-1.107,1.300,-1.430,-2.258,-14.587,59.448
-1.091,1.244,-1.437,-0.244,-24.536,45.288
-1.073,1.194,-1.439,1.770,-33.997,32.532
-1.049,1.145,-1.433,2.747,-42.297,20.508
-1.035,1.089,-1.424,3.479,-49.133,8.911
-1.015,1.039,-1.443,3.357,-54.504,-2.563
-0.978,0.996,-1.504,3.296,-60.364,-13.245
-0.962,0.899,-1.554,4.578,-68.481,-23.743
-0.957,0.821,-1.583,10.010,-78.735,-32.227
-0.937,0.762,-1.582,19.287,-89.600,-39.001
-0.920,0.729,-1.573,26.672,-99.426,-43.762
-0.904,0.715,-1.550,31.860,-109.131,-47.668
-0.880,0.695,-1.517,36.194,-118.042,-50.598
-0.839,0.671,-1.493,41.687,-125.061,-54.321
-0.804,0.651,-1.476,50.598,-129.639,-58.777
-0.797,0.610,-1.450,61.646,-131.592,-62.927
-0.796,0.576,-1.420,72.754,-130.676,-66.162
-0.763,0.556,-1.425,81.604,-128.906,-69.763
-0.730,0.514,-1.484,87.463,-128.479,-73.608
-0.729,0.462,-1.561,90.393,-133.850,-75.562
-0.733,0.427,-1.609,90.942,-146.667,-74.036
-0.712,0.436,-1.554,92.407,-165.283,-70.374
-0.673,0.457,-1.445,96.741,-183.533,-67.688
-0.660,0.462,-1.317,99.915,-196.228,-67.993
-0.650,0.474,-1.219,100.952,-202.271,-69.885
-0.664,0.486,-1.152,98.938,-203.796,-74.036
-0.618,0.452,-1.133,92.651,-202.209,-79.773
-0.558,0.432,-1.140,83.557,-199.463,-84.106
-0.501,0.378,-1.214,76.355,-198.608,-85.571
-0.489,0.365,-1.234,73.303,-205.078,-82.825
-0.448,0.345,-1.204,74.402,-217.590,-77.209
-0.387,0.302,-1.103,77.820,-230.835,-70.862
-0.346,0.280,-0.968,85.693,-241.211,-63.721
-0.304,0.278,-0.830,92.712,-246.521,-56.885
-0.256,0.302,-0.673,95.520,-247.559,-50.964
-0.217,0.355,-0.532,94.482,-244.995,-46.143
-0.194,0.382,-0.435,89.722,-238.708,-44.250
-0.171,0.379,-0.362,82.703,-231.506,-45.410
-0.132,0.352,-0.311,74.524,-225.098,-47.424
-0.079,0.297,-0.281,67.444,-218.933,-47.485
-0.023,0.245,-0.227,64.331,-213.074,-44.250
-0.006,0.227,-0.148,64.575,-207.092,-37.598
-0.005,0.224,-0.070,63.599,-200.867,-29.480
0.004,0.248,-0.005,57.922,-194.336,-20.020
0.022,0.285,0.057,49.316,-188.538,-11.353
0.028,0.318,0.110,38.269,-182.495,-5.310
0.025,0.338,0.177,26.733,-177.185,-1.709
0.037,0.346,0.250,14.160,-171.082,0.732
0.006,0.333,0.291,0.244,-163.391,2.808
0.000,0.325,0.327,-9.338,-154.602,4.089
0.006,0.326,0.330,-14.954,-142.212,4.639
0.008,0.320,0.340,-15.442,-127.197,5.066
0.002,0.312,0.356,-12.390,-110.718,5.554
-0.007,0.312,0.380,-9.583,-93.750,6.836
-0.015,0.333,0.404,-8.240,-77.026,8.423
-0.035,0.367,0.406,-10.193,-60.547,9.277
-0.055,0.402,0.389,-15.991,-45.654,9.216
-0.076,0.415,0.380,-24.292,-33.630,7.324
-0.092,0.408,0.393,-31.738,-24.048,4.211
-0.097,0.409,0.408,-36.377,-15.076,0.427
-0.097,0.411,0.420,-40.527,-5.615,-2.930
-0.098,0.394,0.434,-44.800,5.554,-4.639
-0.109,0.376,0.454,-47.241,19.409,-5.066
-0.129,0.376,0.470,-48.523,35.095,-4.211
-0.155,0.395,0.474,-50.110,51.575,-2.747
-0.182,0.420,0.469,-53.833,67.932,-2.197
-0.211,0.452,0.461,-56.885,83.618,-2.991
-0.237,0.498,0.455,-59.937,98.572,-4.883
-0.262,0.525,0.457,-64.026,112.976,-8.789
-0.294,0.545,0.474,-70.374,125.854,-15.198
-0.333,0.548,0.465,-81.055,139.038,-23.010
-0.354,0.555,0.403,-96.008,152.405,-31.677
-0.371,0.546,0.313,-112.427,164.368,-40.710
-0.392,0.522,0.232,-125.427,174.255,-50.537
-0.406,0.489,0.163,-134.644,182.068,-60.425
-0.431,0.439,0.112,-140.320,190.186,-69.275
-0.450,0.379,0.033,-144.531,199.219,-76.904
-0.455,0.293,-0.062,-147.644,209.106,-81.116
-0.482,0.229,-0.158,-147.095,218.994,-81.055
-0.527,0.225,-0.217,-144.775,228.760,-76.660
-0.618,0.226,-0.319,-149.109,237.854,-70.740
-0.715,0.277,-0.444,-155.762,243.103,-66.772
-0.801,0.351,-0.472,-160.828,241.028,-69.092
-0.885,0.348,-0.489,-171.570,237.915,-79.041
-0.950,0.280,-0.511,-183.655,236.877,-94.055
-1.004,0.165,-0.566,-192.383,239.319,-110.229
-1.061,0.010,-0.648,-196.106,245.544,-124.756
-1.056,-0.136,-0.799,-196.777,255.981,-134.949
-1.031,-0.297,-0.968,-194.885,267.761,-142.761
-1.042,-0.449,-1.091,-193.176,278.320,-148.071
-1.041,-0.560,-1.374,-193.420,290.100,-149.841
-1.003,-0.705,-1.653,-179.260,294.067,-149.780
-0.909,-0.829,-1.865,-154.175,288.818,-143.494
-0.807,-0.910,-1.977,-125.061,278.992,-129.456
-0.745,-0.946,-2.027,-99.487,270.142,-107.544
-0.753,-0.891,-2.128,-79.956,262.695,-79.224
-0.801,-0.758,-2.217,-63.416,250.488,-50.598
-0.881,-0.603,-2.231,-54.138,230.408,-29.480
-0.943,-0.446,-2.240,-61.096,203.674,-17.212
-0.970,-0.337,-2.280,-81.604,173.218,-13.977
-0.958,-0.302,-2.334,-102.905,142.151,-19.165

0.353,0.029,-0.549,-32.959,34.851,24.780
0.452,-0.049,-0.455,-36.438,32.227,37.720
0.408,0.050,-0.428,-35.461,31.128,53.284
0.335,0.109,-0.394,-35.217,34.485,63.721
0.319,0.136,-0.409,-36.072,39.063,67.444
0.303,0.093,-0.462,-35.889,44.495,66.895
0.300,0.019,-0.478,-33.691,48.279,65.735
0.286,-0.036,-0.457,-29.846,51.147,66.528
0.263,-0.107,-0.493,-27.039,55.664,69.519
0.238,-0.183,-0.543,-24.048,60.242,75.562
0.207,-0.234,-0.586,-19.409,64.026,85.083
0.157,-0.237,-0.598,-14.465,66.223,97.900
0.094,-0.196,-0.577,-11.108,67.261,111.206
0.013,-0.131,-0.536,-9.705,68.420,122.070
-0.057,-0.046,-0.489,-9.155,71.289,128.296
-0.089,0.015,-0.451,-9.033,76.294,129.150
-0.090,0.056,-0.434,-8.545,82.886,126.221
-0.095,0.047,-0.453,-7.935,90.820,122.864
-0.098,-0.001,-0.478,-4.944,99.060,121.155
-0.096,-0.053,-0.492,2.686,107.239,122.742
-0.108,-0.087,-0.518,11.902,115.173,128.174
-0.130,-0.109,-0.552,18.616,121.094,137.146
-0.172,-0.119,-0.591,20.813,125.000,148.987
-0.236,-0.079,-0.614,20.691,126.709,162.476
-0.271,-0.047,-0.650,21.545,127.075,176.575
-0.338,0.069,-0.667,23.682,126.831,190.430
-0.406,0.139,-0.606,23.560,126.099,202.209
-0.461,0.213,-0.586,18.799,123.108,211.914
-0.491,0.302,-0.572,15.198,123.474,219.788
-0.526,0.376,-0.528,14.709,123.230,224.365
-0.577,0.392,-0.509,7.812,123.779,227.600
-0.613,0.429,-0.545,0.244,125.427,233.154
-0.666,0.569,-0.523,-4.395,125.916,241.089
-0.761,0.707,-0.568,-13.855,127.380,244.629
-0.795,0.871,-0.594,-18.982,124.451,244.385
-0.865,0.938,-0.584,-32.776,115.845,238.647
-0.954,0.959,-0.598,-54.626,108.948,227.295
-0.992,0.987,-0.662,-78.674,105.652,214.050
-0.992,0.968,-0.805,-99.670,105.896,199.646
-1.019,0.936,-0.976,-106.628,108.582,186.340
-1.086,0.933,-1.149,-97.351,114.075,177.612
-1.157,0.960,-1.313,-77.698,121.094,172.668
-1.262,0.989,-1.494,-54.260,126.709,169.250
-1.355,1.069,-1.642,-31.006,126.465,164.734
-1.372,1.158,-1.727,-10.681,118.408,156.250
-1.326,1.205,-1.778,3.540,104.309,140.991
-1.267,1.195,-1.797,12.085,87.097,121.582
-1.231,1.135,-1.828,16.663,69.519,103.760
-1.198,1.080,-1.850,20.508,52.124,90.576
-1.167,1.052,-1.855,26.123,35.706,82.153
-1.137,1.029,-1.813,33.813,21.179,75.378
-1.110,1.030,-1.742,41.626,9.521,68.359
-1.067,1.031,-1.697,46.570,0.122,59.265
-1.008,1.027,-1.658,50.049,-8.423,47.729
-0.945,1.004,-1.589,54.565,-17.578,33.203
-0.892,0.949,-1.507,60.059,-25.635,16.357
-0.858,0.870,-1.436,64.514,-31.982,-1.160
-0.830,0.765,-1.392,65.430,-37.048,-16.174
-0.786,0.691,-1.375,64.148,-41.199,-27.222
-0.753,0.611,-1.386,62.988,-45.227,-34.424
-0.732,0.539,-1.412,63.599,-49.316,-38.818
-0.726,0.469,-1.425,67.566,-54.260,-40.344
-0.726,0.429,-1.425,72.510,-59.875,-39.063
-0.730,0.417,-1.430,77.820,-65.674,-35.583
-0.749,0.425,-1.467,82.703,-71.045,-31.433
-0.767,0.425,-1.497,88.257,-77.026,-27.527
-0.760,0.451,-1.498,96.069,-84.656,-24.170
-0.748,0.515,-1.468,106.567,-92.346,-21.179
-0.746,0.555,-1.389,117.493,-98.755,-21.240
-0.742,0.597,-1.310,127.930,-101.807,-23.865
-0.737,0.626,-1.251,135.498,-101.929,-28.381
-0.720,0.646,-1.205,139.465,-101.318,-35.278
-0.688,0.646,-1.215,138.733,-101.440,-43.213
-0.641,0.632,-1.247,133.545,-103.821,-49.866
-0.618,0.620,-1.269,127.747,-109.497,-52.856
-0.604,0.620,-1.297,123.657,-116.821,-52.490
-0.578,0.656,-1.290,122.742,-124.268,-50.354
-0.554,0.718,-1.271,125.061,-131.165,-49.622
-0.572,0.787,-1.234,128.357,-137.878,-51.575
-0.602,0.846,-1.186,126.343,-145.264,-57.068
-0.609,0.869,-1.136,117.554,-151.917,-66.284
-0.553,0.877,-1.107,108.093,-158.447,-77.332
-0.534,0.846,-1.058,101.135,-165.344,-86.670
-0.514,0.816,-1.011,95.947,-170.959,-94.177
-0.479,0.777,-0.947,94.788,-174.683,-100.708
-0.450,0.745,-0.874,96.680,-176.270,-105.835
-0.410,0.739,-0.821,98.755,-175.598,-108.276
-0.389,0.748,-0.755,100.098,-174.438,-108.459
-0.356,0.725,-0.718,100.220,-172.607,-109.375
-0.312,0.693,-0.653,102.722,-170.837,-110.901
-0.275,0.667,-0.555,106.628,-169.189,-111.572
-0.249,0.638,-0.457,107.605,-166.687,-112.549
-0.217,0.619,-0.380,102.234,-163.757,-113.403
-0.190,0.600,-0.347,91.431,-161.560,-113.220
-0.167,0.560,-0.335,77.759,-161.560,-112.549
-0.158,0.509,-0.312,65.247,-164.062,-110.535
-0.142,0.456,-0.270,56.396,-166.992,-107.056
-0.124,0.400,-0.210,52.734,-168.091,-102.173
-0.111,0.372,-0.138,53.650,-166.077,-96.069
-0.104,0.355,-0.046,56.824,-161.133,-88.928
-0.077,0.363,0.070,58.289,-154.236,-82.947
-0.092,0.335,0.206,56.335,-145.752,-78.796
-0.104,0.264,0.295,48.706,-135.315,-77.087
-0.087,0.298,0.345,34.058,-123.840,-79.041
-0.041,0.296,0.331,19.348,-112.305,-79.163
-0.030,0.238,0.359,16.174,-101.440,-75.317
-0.017,0.206,0.337,12.939,-89.050,-72.083
0.011,0.172,0.371,8.972,-78.003,-67.322
0.020,0.129,0.410,6.836,-67.627,-60.669
0.031,0.117,0.399,2.808,-56.519,-52.063
0.004,0.205,0.415,0.977,-44.556,-43.396
-0.003,0.218,0.454,-1.465,-32.959,-36.133
0.007,0.204,0.478,-2.319,-21.912,-29.480
0.003,0.215,0.467,-4.700,-10.010,-23.010
-0.013,0.244,0.467,-6.592,2.502,-16.785
-0.034,0.271,0.483,-5.371,16.052,-12.573
-0.046,0.298,0.500,-4.639,29.968,-10.498
-0.049,0.308,0.514,-7.385,43.030,-9.827
-0.050,0.288,0.526,-13.245,54.626,-9.827
-0.055,0.270,0.536,-20.813,65.186,-8.728
-0.066,0.262,0.540,-28.748,75.317,-6.042
-0.078,0.297,0.535,-36.377,86.487,-1.587
-0.100,0.337,0.532,-43.213,98.206,2.747
-0.118,0.365,0.530,-49.622,110.596,5.310
-0.142,0.387,0.532,-55.725,122.620,5.554
-0.172,0.414,0.521,-61.584,135.254,4.944
-0.222,0.418,0.481,-69.214,147.888,4.211
-0.262,0.410,0.433,-77.698,159.363,4.272
-0.319,0.402,0.377,-84.351,170.471,5.310
-0.369,0.434,0.295,-85.999,183.533,6.775
-0.423,0.468,0.279,-84.290,199.402,8.240
-0.492,0.488,0.198,-90.149,213.623,9.583
-0.559,0.514,0.085,-97.229,226.257,9.460
-0.648,0.519,0.021,-100.830,238.159,7.385
-0.719,0.531,-0.041,-102.478,248.291,3.235
-0.762,0.550,-0.094,-105.469,258.545,-1.892
-0.813,0.553,-0.139,-109.009,268.738,-7.202
-0.858,0.545,-0.204,-112.427,278.687,-14.221
-0.889,0.489,-0.253,-114.929,287.476,-23.315
-0.897,0.388,-0.263,-116.638,294.678,-31.921
-0.894,0.260,-0.340,-123.962,303.589,-36.133
-0.883,0.190,-0.467,-129.028,312.439,-35.583
-0.862,0.137,-0.552,-131.958,316.711,-34.607
-0.837,0.035,-0.741,-144.775,321.167,-35.095
-0.820,-0.100,-1.091,-159.058,325.623,-37.109
-0.771,-0.196,-1.435,-160.217,325.378,-37.842
-0.731,-0.277,-1.671,-150.574,321.289,-35.278
-0.719,-0.331,-1.798,-131.958,315.063,-29.724
-0.711,-0.365,-1.805,-104.614,307.190,-20.813

0.232,-0.042,-0.557,-32.776,-19.714,-4.700
0.322,-0.109,-0.410,-23.315,-18.372,4.211
0.299,-0.082,-0.391,-17.517,-15.625,16.968
0.253,-0.068,-0.373,-13.672,-10.071,29.297
0.251,-0.057,-0.368,-9.949,-4.761,40.283
0.250,-0.048,-0.378,-4.639,0.793,49.133
0.236,-0.051,-0.352,0.061,5.920,58.105
0.217,-0.041,-0.308,2.563,10.681,66.528
0.199,-0.038,-0.316,1.404,16.479,74.097
0.191,-0.070,-0.356,-1.282,22.461,80.688
0.178,-0.121,-0.382,-1.953,26.550,87.097
0.168,-0.155,-0.377,-1.160,28.870,94.727
0.154,-0.182,-0.372,-2.136,30.701,104.248
0.141,-0.219,-0.369,-5.371,32.776,114.258
0.116,-0.261,-0.358,-8.362,35.095,124.451
0.089,-0.291,-0.359,-9.705,38.635,135.315
0.056,-0.337,-0.360,-9.033,42.480,146.667
0.009,-0.352,-0.344,-5.554,46.631,158.936
-0.046,-0.363,-0.313,0.366,51.392,171.753
-0.112,-0.371,-0.291,7.874,57.312,184.814
-0.184,-0.354,-0.252,18.311,64.392,198.242
-0.239,-0.298,-0.217,30.334,73.425,211.121
-0.282,-0.245,-0.208,39.917,83.008,222.168
-0.260,-0.228,-0.109,45.166,90.698,232.239
-0.372,-0.169,-0.258,49.011,97.107,241.699
-0.419,-0.128,-0.259,49.805,100.098,250.061
-0.463,-0.056,-0.273,48.889,101.135,259.827
-0.531,0.034,-0.311,45.837,102.112,270.874
-0.619,0.178,-0.374,37.903,101.135,283.081
-0.721,0.306,-0.464,22.095,98.267,296.753
-0.817,0.473,-0.544,12.390,92.957,308.044
-0.949,0.687,-0.545,9.705,84.473,314.392
-1.115,0.891,-0.469,0.305,78.796,316.467
-1.285,1.078,-0.551,-20.996,84.473,314.148
-1.408,1.330,-0.767,-27.893,94.238,305.115
-1.487,1.537,-0.904,-23.499,92.834,287.109
-1.528,1.631,-0.966,-27.405,86.121,262.024
-1.500,1.642,-0.983,-33.508,80.811,234.619
-1.440,1.588,-1.090,-39.856,80.811,207.397
-1.380,1.553,-1.235,-35.583,81.543,185.608
-1.335,1.540,-1.286,-19.043,77.576,171.448
-1.297,1.538,-1.257,-1.648,70.435,159.973
-1.259,1.529,-1.218,7.324,62.622,146.301
-1.234,1.483,-1.191,8.667,54.871,130.798
-1.226,1.465,-1.219,4.700,46.448,116.089
-1.209,1.471,-1.286,-4.395,35.400,102.783
-1.182,1.459,-1.346,-13.611,21.484,89.722
-1.163,1.425,-1.374,-15.991,7.568,75.989
-1.146,1.383,-1.360,-9.644,-3.174,61.890
-1.108,1.345,-1.315,2.258,-9.277,48.340
-1.057,1.307,-1.254,15.381,-11.658,34.546
-1.006,1.257,-1.201,26.550,-11.597,20.020
-0.953,1.216,-1.171,32.715,-10.559,5.737
-0.897,1.166,-1.156,34.668,-10.254,-7.080
-0.857,1.108,-1.152,34.180,-11.841,-19.592
-0.835,1.044,-1.172,31.433,-14.954,-30.701
-0.819,0.979,-1.203,26.672,-19.836,-38.574
-0.807,0.932,-1.243,23.987,-26.306,-44.312
-0.799,0.885,-1.286,25.391,-34.302,-48.889
-0.796,0.850,-1.309,30.884,-43.457,-53.162
-0.797,0.833,-1.306,40.955,-52.795,-57.373
-0.796,0.805,-1.255,53.528,-60.852,-62.317
-0.795,0.764,-1.159,66.956,-65.674,-68.115
-0.795,0.751,-1.100,78.125,-66.223,-73.608
-0.765,0.758,-1.074,82.825,-64.148,-78.491
-0.725,0.761,-1.080,81.848,-62.500,-83.862
-0.697,0.748,-1.103,79.407,-63.538,-89.417
-0.686,0.730,-1.137,76.904,-68.665,-94.360
-0.684,0.699,-1.171,72.815,-77.881,-97.961
-0.669,0.647,-1.191,67.871,-90.454,-98.938
-0.652,0.641,-1.172,63.171,-105.103,-96.497
-0.652,0.675,-1.182,57.129,-120.605,-92.285
-0.655,0.724,-1.144,50.110,-136.169,-88.562
-0.660,0.737,-1.057,45.105,-148.987,-87.158
-0.614,0.784,-0.985,41.931,-155.273,-89.355
-0.555,0.839,-0.974,34.790,-157.166,-93.933
-0.521,0.826,-1.006,23.804,-158.081,-99.670
-0.514,0.788,-1.062,11.841,-160.645,-103.638
-0.474,0.733,-1.141,4.395,-166.504,-104.065
-0.414,0.669,-1.198,0.732,-176.880,-101.685
-0.343,0.656,-1.182,1.343,-191.162,-95.764
-0.281,0.673,-1.122,5.920,-206.238,-89.172
